Folder: Semizbugu-microscopy/data/SEM-data_2024/artifact_surfaces/P1-231_artifact_lw_analysis_1_region

Note: README.md
# Semizbugu-microscopy
Analysis of cross-sectioned artifacts from Semizbugu to study rock coatings

File: spectrum.emsa
#FORMAT      : EMSA/MAS Spectral Data File
#VERSION     : 1.0
#TITLE       : EDS Spectrum
#DATE        : 19-SEP-2024
#TIME        : 11:20
#OWNER       : Thermo Fisher Scientific Inc.
#NPOINTS     : 2048.
#NCOLUMNS    : 1.
#XUNITS      : eV
#YUNITS      : Counts
#DATATYPE    : Y
#XPERCHAN    : 9.933
#OFFSET      : -44.878
#XLABEL      : Energy
#YLABEL      : Counts
#SIGNALTYPE  : EDS
#BEAMKV      : 15.000
#AZIMANGLE-dg: 0.0
#ELEVANGLE-dg: 28.5
#LIVETIME    : 42.543
#REALTIME    : 52.160
#EDSDET      : SDUTW
##MNFWHM     : 126.3
##INSTRUMENT : MVE075582-10647-L
##SLOWTPEAK  : 0.000004000
##FASTTPEAK  : 0.000000100
##OPTICALWD  : 0.005500000
##WD         : 0.006934642
##SDDAREA    : 0.000025
##CCORR      : 260.454
##SCORR      : LIN
#SPECTRUM    : Spectral Data Starts Here
0.000
0.000
67.000
41.000
254.000
363.000
132.000
359.000
7312.000
167.000
102.000
154.000
90.000
92.000
117.000
581.000
441.000
118.000
163.000
191.000
133.000
312.000
1627.000
264.000
200.000
4604.000
5703.000
482.000
89.000
91.000
90.000
79.000
69.000
69.000
89.000
66.000
72.000
67.000
69.000
66.000
47.000
64.000
64.000
71.000
58.000
53.000
56.000
66.000
118.000
104.000
70.000
62.000
54.000
90.000
109.000
49.000
43.000
59.000
49.000
62.000
48.000
53.000
54.000
47.000
44.000
58.000
51.000
42.000
54.000
55.000
37.000
27.000
35.000
39.000
35.000
36.000
31.000
39.000
33.000
31.000
40.000
31.000
37.000
24.000
36.000
34.000
36.000
30.000
31.000
25.000
30.000
46.000
110.000
126.000
38.000
37.000
23.000
22.000
25.000
31.000
22.000
35.000
35.000
27.000
24.000
23.000
13.000
28.000
24.000
15.000
14.000
23.000
16.000
15.000
18.000
18.000
17.000
15.000
14.000
16.000
19.000
18.000
15.000
16.000
25.000
24.000
14.000
15.000
10.000
16.000
12.000
13.000
14.000
12.000
11.000
13.000
13.000
12.000
15.000
11.000
9.000
9.000
12.000
10.000
13.000
11.000
11.000
8.000
8.000
4.000
13.000
6.000
4.000
5.000
5.000
8.000
7.000
4.000
5.000
7.000
6.000
3.000
9.000
9.000
8.000
5.000
5.000
5.000
3.000
3.000
4.000
1.000
4.000
5.000
3.000
4.000
2.000
4.000
4.000
1.000
1.000
6.000
2.000
3.000
2.000
2.000
0.000
0.000
1.000
2.000
1.000
4.000
4.000
1.000
2.000
0.000
1.000
1.000
3.000
3.000
1.000
1.000
1.000
1.000
1.000
3.000
1.000
2.000
1.000
1.000
0.000
0.000
2.000
0.000
0.000
0.000
0.000
0.000
0.000
0.000
0.000
0.000
0.000
0.000
0.000
0.000
0.000
0.000
0.000
0.000
0.000
0.000
0.000
0.000
0.000
0.000
0.000
0.000
0.000
0.000
0.000
0.000
0.000
0.000
0.000
0.000
0.000
0.000
0.000
0.000
0.000
0.000
0.000
0.000
0.000
0.000
0.000
0.000
0.000
0.000
0.000
0.000
0.000
0.000
0.000
0.000
0.000
0.000
0.000
0.000
0.000
0.000
0.000
0.000
0.000
0.000
0.000
0.000
0.000
0.000
0.000
0.000
0.000
0.000
0.000
0.000
0.000
0.000
0.000
0.000
0.000
0.000
0.000
0.000
#ENDOFDATA   :