Folder: Semizbugu-microscopy/data/SEM-data_2024/artifact_surfaces/P1-231_artifact_mw_analysis_2_region

Note: README.md
# Semizbugu-microscopy
Analysis of cross-sectioned artifacts from Semizbugu to study rock coatings

File: spectrum.emsa
#FORMAT      : EMSA/MAS Spectral Data File
#VERSION     : 1.0
#TITLE       : EDS Spectrum
#DATE        : 19-SEP-2024
#TIME        : 11:20
#OWNER       : Thermo Fisher Scientific Inc.
#NPOINTS     : 2048.
#NCOLUMNS    : 1.
#XUNITS      : eV
#YUNITS      : Counts
#DATATYPE    : Y
#XPERCHAN    : 9.933
#OFFSET      : -44.878
#XLABEL      : Energy
#YLABEL      : Counts
#SIGNALTYPE  : EDS
#BEAMKV      : 15.000
#AZIMANGLE-dg: 0.0
#ELEVANGLE-dg: 28.5
#LIVETIME    : 41.738
#REALTIME    : 51.593
#EDSDET      : SDUTW
##MNFWHM     : 126.3
##INSTRUMENT : MVE075582-10647-L
##SLOWTPEAK  : 0.000004000
##FASTTPEAK  : 0.000000100
##OPTICALWD  : 0.005500000
##WD         : 0.006872113
##SDDAREA    : 0.000025
##CCORR      : 260.454
##SCORR      : LIN
#SPECTRUM    : Spectral Data Starts Here
0.000
0.000
64.000
37.000
159.000
244.000
145.000
413.000
7717.000
255.000
120.000
211.000
84.000
71.000
101.000
457.000
405.000
108.000
150.000
190.000
135.000
322.000
1553.000
267.000
228.000
4399.000
5705.000
478.000
104.000
97.000
103.000
90.000
77.000
86.000
82.000
87.000
76.000
72.000
98.000
72.000
76.000
64.000
68.000
66.000
61.000
61.000
61.000
69.000
130.000
80.000
63.000
56.000
64.000
85.000
85.000
66.000
54.000
60.000
63.000
52.000
52.000
49.000
46.000
49.000
50.000
51.000
60.000
45.000
40.000
42.000
37.000
37.000
39.000
29.000
43.000
48.000
38.000
33.000
34.000
41.000
41.000
34.000
33.000
42.000
36.000
31.000
39.000
26.000
29.000
24.000
37.000
42.000
200.000
232.000
71.000
34.000
29.000
24.000
28.000
17.000
26.000
30.000
41.000
39.000
20.000
20.000
22.000
20.000
26.000
20.000
10.000
12.000
19.000
16.000
16.000
19.000
26.000
20.000
21.000
13.000
19.000
16.000
16.000
13.000
18.000
15.000
15.000
17.000
13.000
12.000
18.000
10.000
11.000
15.000
13.000
11.000
10.000
18.000
8.000
11.000
9.000
11.000
9.000
6.000
4.000
9.000
10.000
10.000
7.000
10.000
8.000
6.000
6.000
9.000
5.000
13.000
7.000
5.000
7.000
5.000
3.000
4.000
10.000
4.000
3.000
4.000
3.000
8.000
7.000
6.000
3.000
2.000
3.000
2.000
5.000
2.000
3.000
5.000
4.000
0.000
0.000
4.000
1.000
3.000
1.000
2.000
3.000
9.000
1.000
2.000
0.000
1.000
1.000
0.000
3.000
1.000
1.000
1.000
2.000
0.000
0.000
2.000
1.000
0.000
0.000
0.000
0.000
1.000
1.000
1.000
0.000
1.000
0.000
1.000
0.000
0.000
0.000
0.000
0.000
0.000
0.000
0.000
0.000
0.000
0.000
0.000
0.000
0.000
0.000
0.000
0.000
0.000
0.000
0.000
0.000
0.000
0.000
0.000
0.000
0.000
0.000
0.000
0.000
0.000
0.000
0.000
0.000
0.000
0.000
0.000
0.000
0.000
0.000
0.000
0.000
0.000
0.000
0.000
0.000
0.000
0.000
0.000
0.000
0.000
0.000
0.000
0.000
0.000
0.000
0.000
0.000
0.000
0.000
0.000
0.000
0.000
0.000
0.000
0.000
0.000
0.000
0.000
0.000
0.000
0.000
0.000
0.000
0.000
0.000
0.000
0.000
0.000
0.000
0.000
#ENDOFDATA   :