Folder: Semizbugu-microscopy/data/SEM-data_2024/artifact_surfaces/P1-231_artifact_mw_analysis_1_region

Note: README.md
# Semizbugu-microscopy
Analysis of cross-sectioned artifacts from Semizbugu to study rock coatings

File: spectrum.emsa
#FORMAT      : EMSA/MAS Spectral Data File
#VERSION     : 1.0
#TITLE       : EDS Spectrum
#DATE        : 19-SEP-2024
#TIME        : 11:20
#OWNER       : Thermo Fisher Scientific Inc.
#NPOINTS     : 2048.
#NCOLUMNS    : 1.
#XUNITS      : eV
#YUNITS      : Counts
#DATATYPE    : Y
#XPERCHAN    : 9.933
#OFFSET      : -44.878
#XLABEL      : Energy
#YLABEL      : Counts
#SIGNALTYPE  : EDS
#BEAMKV      : 15.000
#AZIMANGLE-dg: 0.0
#ELEVANGLE-dg: 28.5
#LIVETIME    : 42.380
#REALTIME    : 52.161
#EDSDET      : SDUTW
##MNFWHM     : 126.3
##INSTRUMENT : MVE075582-10647-L
##SLOWTPEAK  : 0.000004000
##FASTTPEAK  : 0.000000100
##OPTICALWD  : 0.005500000
##WD         : 0.006872113
##SDDAREA    : 0.000025
##CCORR      : 260.454
##SCORR      : LIN
#SPECTRUM    : Spectral Data Starts Here
0.000
0.000
65.000
23.000
186.000
284.000
129.000
384.000
7581.000
194.000
147.000
238.000
94.000
82.000
82.000
446.000
402.000
109.000
143.000
177.000
134.000
306.000
1570.000
278.000
226.000
4349.000
5428.000
469.000
99.000
118.000
108.000
92.000
79.000
86.000
98.000
78.000
89.000
94.000
101.000
91.000
74.000
68.000
49.000
67.000
56.000
75.000
57.000
70.000
131.000
100.000
64.000
62.000
70.000
104.000
107.000
68.000
57.000
60.000
61.000
59.000
54.000
65.000
38.000
43.000
67.000
76.000
61.000
50.000
54.000
64.000
41.000
45.000
48.000
31.000
51.000
46.000
48.000
40.000
38.000
31.000
32.000
37.000
44.000
31.000
34.000
40.000
49.000
31.000
27.000
35.000
36.000
78.000
248.000
277.000
106.000
34.000
29.000
20.000
28.000
23.000
28.000
40.000
67.000
37.000
24.000
27.000
16.000
18.000
13.000
20.000
25.000
22.000
22.000
24.000
12.000
25.000
19.000
18.000
16.000
17.000
8.000
15.000
19.000
15.000
15.000
18.000
14.000
20.000
11.000
14.000
8.000
15.000
8.000
9.000
13.000
11.000
9.000
10.000
14.000
17.000
9.000
7.000
15.000
8.000
10.000
7.000
8.000
4.000
10.000
8.000
8.000
7.000
9.000
14.000
14.000
6.000
7.000
8.000
5.000
5.000
7.000
9.000
7.000
6.000
4.000
7.000
7.000
2.000
5.000
2.000
2.000
9.000
6.000
3.000
3.000
2.000
4.000
1.000
6.000
1.000
7.000
2.000
2.000
0.000
4.000
5.000
4.000
5.000
1.000
1.000
4.000
1.000
1.000
2.000
1.000
2.000
1.000
0.000
1.000
1.000
1.000
3.000
1.000
0.000
1.000
1.000
0.000
2.000
1.000
0.000
1.000
0.000
0.000
1.000
1.000
0.000
0.000
0.000
0.000
0.000
0.000
0.000
0.000
0.000
0.000
0.000
0.000
0.000
0.000
0.000
0.000
0.000
0.000
0.000
0.000
0.000
0.000
0.000
0.000
0.000
0.000
0.000
0.000
0.000
0.000
0.000
0.000
0.000
0.000
0.000
0.000
0.000
0.000
0.000
0.000
0.000
0.000
0.000
0.000
0.000
0.000
0.000
0.000
0.000
0.000
0.000
0.000
0.000
0.000
0.000
0.000
0.000
0.000
0.000
0.000
0.000
0.000
0.000
0.000
0.000
0.000
0.000
0.000
0.000
0.000
0.000
0.000
0.000
0.000
0.000
0.000
0.000
0.000
0.000
#ENDOFDATA   :