Folder: Semizbugu-microscopy/data/SEM-data_2024/artifact_surfaces/P1-231_artifact_lw_analysis_2_region

Note: README.md
# Semizbugu-microscopy
Analysis of cross-sectioned artifacts from Semizbugu to study rock coatings

File: spectrum.emsa
#FORMAT      : EMSA/MAS Spectral Data File
#VERSION     : 1.0
#TITLE       : EDS Spectrum
#DATE        : 19-SEP-2024
#TIME        : 11:20
#OWNER       : Thermo Fisher Scientific Inc.
#NPOINTS     : 2048.
#NCOLUMNS    : 1.
#XUNITS      : eV
#YUNITS      : Counts
#DATATYPE    : Y
#XPERCHAN    : 9.933
#OFFSET      : -44.878
#XLABEL      : Energy
#YLABEL      : Counts
#SIGNALTYPE  : EDS
#BEAMKV      : 15.000
#AZIMANGLE-dg: 0.0
#ELEVANGLE-dg: 28.5
#LIVETIME    : 41.706
#REALTIME    : 51.192
#EDSDET      : SDUTW
##MNFWHM     : 126.3
##INSTRUMENT : MVE075582-10647-L
##SLOWTPEAK  : 0.000004000
##FASTTPEAK  : 0.000000100
##OPTICALWD  : 0.005500000
##WD         : 0.006934642
##SDDAREA    : 0.000025
##CCORR      : 260.454
##SCORR      : LIN
#SPECTRUM    : Spectral Data Starts Here
0.000
0.000
63.000
32.000
244.000
295.000
137.000
384.000
7706.000
194.000
102.000
153.000
91.000
84.000
109.000
594.000
464.000
103.000
175.000
178.000
132.000
303.000
1654.000
259.000
187.000
4629.000
5990.000
502.000
90.000
95.000
93.000
78.000
61.000
72.000
78.000
74.000
71.000
71.000
79.000
75.000
62.000
59.000
76.000
62.000
61.000
65.000
55.000
56.000
133.000
75.000
56.000
59.000
67.000
84.000
121.000
45.000
38.000
50.000
53.000
52.000
36.000
42.000
51.000
28.000
36.000
58.000
41.000
22.000
46.000
41.000
40.000
23.000
39.000
36.000
38.000
43.000
38.000
25.000
31.000
29.000
30.000
25.000
19.000
33.000
25.000
33.000
40.000
29.000
21.000
28.000
33.000
49.000
112.000
117.000
46.000
21.000
19.000
17.000
22.000
26.000
26.000
28.000
32.000
29.000
17.000
25.000
21.000
18.000
14.000
31.000
20.000
17.000
15.000
12.000
22.000
22.000
6.000
23.000
24.000
14.000
9.000
12.000
11.000
16.000
15.000
18.000
17.000
9.000
16.000
16.000
4.000
9.000
10.000
13.000
6.000
16.000
9.000
11.000
12.000
8.000
12.000
9.000
10.000
6.000
14.000
7.000
6.000
7.000
8.000
3.000
6.000
7.000
6.000
3.000
9.000
10.000
7.000
2.000
6.000
4.000
7.000
4.000
4.000
4.000
6.000
5.000
1.000
4.000
5.000
5.000
5.000
9.000
1.000
2.000
4.000
1.000
5.000
4.000
3.000
5.000
2.000
4.000
2.000
1.000
1.000
2.000
2.000
3.000
1.000
2.000
1.000
1.000
0.000
4.000
2.000
4.000
1.000
1.000
1.000
0.000
0.000
1.000
1.000
0.000
2.000
0.000
0.000
1.000
0.000
1.000
0.000
0.000
0.000
1.000
0.000
0.000
0.000
0.000
0.000
0.000
0.000
0.000
0.000
0.000
0.000
0.000
0.000
0.000
0.000
0.000
0.000
0.000
0.000
0.000
0.000
0.000
0.000
0.000
0.000
0.000
0.000
0.000
0.000
0.000
0.000
0.000
0.000
0.000
0.000
0.000
0.000
0.000
0.000
0.000
0.000
0.000
0.000
0.000
0.000
0.000
0.000
0.000
0.000
0.000
0.000
0.000
0.000
0.000
0.000
0.000
0.000
0.000
0.000
0.000
0.000
0.000
0.000
0.000
0.000
0.000
0.000
0.000
0.000
0.000
0.000
0.000
0.000
0.000
0.000
0.000
0.000
0.000
0.000
0.000
#ENDOFDATA   :