Folder: Semizbugu-microscopy/data/SEM-data_2024/artifact_surfaces/P1-336_artifact_lw_analysis_1_region

Note: README.md
# Semizbugu-microscopy
Analysis of cross-sectioned artifacts from Semizbugu to study rock coatings

File: spectrum.emsa
#FORMAT      : EMSA/MAS Spectral Data File
#VERSION     : 1.0
#TITLE       : EDS Spectrum
#DATE        : 19-SEP-2024
#TIME        : 11:20
#OWNER       : Thermo Fisher Scientific Inc.
#NPOINTS     : 2048.
#NCOLUMNS    : 1.
#XUNITS      : eV
#YUNITS      : Counts
#DATATYPE    : Y
#XPERCHAN    : 9.933
#OFFSET      : -44.878
#XLABEL      : Energy
#YLABEL      : Counts
#SIGNALTYPE  : EDS
#BEAMKV      : 15.000
#AZIMANGLE-dg: 0.0
#ELEVANGLE-dg: 28.5
#LIVETIME    : 29.741
#REALTIME    : 37.561
#EDSDET      : SDUTW
##MNFWHM     : 126.3
##INSTRUMENT : MVE075582-10647-L
##SLOWTPEAK  : 0.000004000
##FASTTPEAK  : 0.000000100
##OPTICALWD  : 0.005500000
##WD         : 0.007163208
##SDDAREA    : 0.000025
##CCORR      : 260.454
##SCORR      : LIN
#SPECTRUM    : Spectral Data Starts Here
0.000
0.000
66.000
38.000
166.000
245.000
190.000
478.000
9300.000
236.000
86.000
145.000
77.000
97.000
137.000
285.000
282.000
135.000
192.000
215.000
133.000
287.000
1098.000
269.000
205.000
4956.000
6174.000
468.000
102.000
87.000
71.000
64.000
72.000
65.000
92.000
58.000
68.000
54.000
80.000
70.000
51.000
48.000
45.000
55.000
58.000
62.000
42.000
56.000
122.000
78.000
48.000
47.000
53.000
70.000
97.000
44.000
30.000
44.000
39.000
31.000
38.000
46.000
32.000
39.000
36.000
39.000
43.000
38.000
36.000
33.000
35.000
33.000
35.000
31.000
32.000
25.000
20.000
22.000
17.000
26.000
27.000
29.000
23.000
27.000
30.000
31.000
28.000
21.000
21.000
22.000
22.000
25.000
65.000
71.000
37.000
15.000
8.000
18.000
20.000
11.000
11.000
21.000
22.000
17.000
17.000
12.000
12.000
19.000
16.000
16.000
14.000
14.000
13.000
12.000
11.000
12.000
14.000
13.000
15.000
7.000
5.000
9.000
7.000
5.000
7.000
11.000
7.000
7.000
11.000
12.000
9.000
11.000
11.000
6.000
3.000
11.000
11.000
7.000
4.000
7.000
5.000
6.000
6.000
4.000
11.000
10.000
3.000
2.000
9.000
4.000
8.000
9.000
3.000
6.000
3.000
4.000
2.000
2.000
1.000
4.000
6.000
5.000
5.000
8.000
4.000
3.000
4.000
2.000
6.000
1.000
5.000
6.000
4.000
5.000
5.000
6.000
6.000
1.000
1.000
2.000
3.000
3.000
3.000
4.000
5.000
2.000
1.000
4.000
1.000
1.000
2.000
0.000
3.000
1.000
1.000
1.000
2.000
0.000
0.000
1.000
1.000
1.000
0.000
0.000
1.000
0.000
0.000
0.000
0.000
0.000
0.000
0.000
0.000
0.000
0.000
0.000
0.000
0.000
0.000
0.000
0.000
0.000
0.000
0.000
0.000
0.000
0.000
0.000
0.000
0.000
0.000
0.000
0.000
0.000
0.000
0.000
0.000
0.000
0.000
0.000
0.000
0.000
0.000
0.000
0.000
0.000
0.000
0.000
0.000
0.000
0.000
0.000
0.000
0.000
0.000
0.000
0.000
0.000
0.000
0.000
0.000
0.000
0.000
0.000
0.000
0.000
0.000
0.000
0.000
0.000
0.000
0.000
0.000
0.000
0.000
0.000
0.000
0.000
0.000
0.000
0.000
0.000
0.000
0.000
0.000
0.000
0.000
0.000
0.000
0.000
0.000
0.000
0.000
0.000
#ENDOFDATA   :