Folder: Semizbugu-microscopy/data/SEM-data_2024/artifact_surfaces/P1-336_artifact_lw_analysis_2_region

Note: README.md
# Semizbugu-microscopy
Analysis of cross-sectioned artifacts from Semizbugu to study rock coatings

File: spectrum.emsa
#FORMAT      : EMSA/MAS Spectral Data File
#VERSION     : 1.0
#TITLE       : EDS Spectrum
#DATE        : 19-SEP-2024
#TIME        : 11:20
#OWNER       : Thermo Fisher Scientific Inc.
#NPOINTS     : 2048.
#NCOLUMNS    : 1.
#XUNITS      : eV
#YUNITS      : Counts
#DATATYPE    : Y
#XPERCHAN    : 9.933
#OFFSET      : -44.878
#XLABEL      : Energy
#YLABEL      : Counts
#SIGNALTYPE  : EDS
#BEAMKV      : 15.000
#AZIMANGLE-dg: 0.0
#ELEVANGLE-dg: 28.5
#LIVETIME    : 30.341
#REALTIME    : 38.393
#EDSDET      : SDUTW
##MNFWHM     : 126.3
##INSTRUMENT : MVE075582-10647-L
##SLOWTPEAK  : 0.000004000
##FASTTPEAK  : 0.000000100
##OPTICALWD  : 0.005500000
##WD         : 0.007163208
##SDDAREA    : 0.000025
##CCORR      : 260.454
##SCORR      : LIN
#SPECTRUM    : Spectral Data Starts Here
0.000
0.000
79.000
42.000
113.000
172.000
177.000
511.000
9793.000
225.000
100.000
132.000
108.000
103.000
112.000
231.000
255.000
120.000
202.000
223.000
155.000
245.000
1075.000
221.000
214.000
4826.000
6136.000
475.000
92.000
71.000
77.000
61.000
75.000
80.000
88.000
56.000
60.000
75.000
68.000
68.000
70.000
58.000
48.000
44.000
46.000
54.000
60.000
59.000
135.000
77.000
46.000
54.000
65.000
85.000
88.000
46.000
44.000
40.000
37.000
35.000
35.000
36.000
45.000
44.000
31.000
48.000
39.000
24.000
36.000
31.000
38.000
44.000
24.000
37.000
25.000
33.000
31.000
30.000
35.000
26.000
22.000
28.000
19.000
20.000
23.000
19.000
18.000
23.000
18.000
18.000
20.000
35.000
75.000
64.000
34.000
17.000
18.000
9.000
17.000
17.000
17.000
20.000
18.000
17.000
16.000
16.000
12.000
14.000
10.000
16.000
17.000
11.000
11.000
11.000
15.000
9.000
17.000
10.000
10.000
16.000
13.000
9.000
7.000
13.000
12.000
11.000
10.000
9.000
10.000
15.000
8.000
10.000
13.000
11.000
10.000
7.000
11.000
4.000
12.000
7.000
4.000
5.000
5.000
3.000
8.000
7.000
8.000
9.000
8.000
6.000
9.000
4.000
2.000
3.000
4.000
7.000
4.000
3.000
3.000
7.000
9.000
8.000
8.000
3.000
8.000
6.000
2.000
3.000
2.000
7.000
1.000
3.000
9.000
7.000
2.000
4.000
4.000
1.000
3.000
3.000
3.000
3.000
1.000
4.000
2.000
3.000
1.000
1.000
0.000
3.000
3.000
0.000
2.000
0.000
3.000
0.000
1.000
2.000
0.000
0.000
2.000
0.000
1.000
1.000
0.000
0.000
2.000
0.000
0.000
0.000
0.000
0.000
0.000
0.000
0.000
0.000
0.000
0.000
0.000
0.000
0.000
0.000
0.000
0.000
0.000
0.000
0.000
0.000
0.000
0.000
0.000
0.000
0.000
0.000
0.000
0.000
0.000
0.000
0.000
0.000
0.000
0.000
0.000
0.000
0.000
0.000
0.000
0.000
0.000
0.000
0.000
0.000
0.000
0.000
0.000
0.000
0.000
0.000
0.000
0.000
0.000
0.000
0.000
0.000
0.000
0.000
0.000
0.000
0.000
0.000
0.000
0.000
0.000
0.000
0.000
0.000
0.000
0.000
0.000
0.000
0.000
0.000
0.000
0.000
0.000
0.000
0.000
0.000
0.000
0.000
0.000
0.000
0.000
0.000
#ENDOFDATA   :