Folder: Semizbugu-microscopy/data/SEM-data_2024/artifact_surfaces/P1-336_artifact_mw_analysis_2_region

Note: README.md
# Semizbugu-microscopy
Analysis of cross-sectioned artifacts from Semizbugu to study rock coatings

File: spectrum.emsa
#FORMAT      : EMSA/MAS Spectral Data File
#VERSION     : 1.0
#TITLE       : EDS Spectrum
#DATE        : 19-SEP-2024
#TIME        : 11:20
#OWNER       : Thermo Fisher Scientific Inc.
#NPOINTS     : 2048.
#NCOLUMNS    : 1.
#XUNITS      : eV
#YUNITS      : Counts
#DATATYPE    : Y
#XPERCHAN    : 9.933
#OFFSET      : -44.878
#XLABEL      : Energy
#YLABEL      : Counts
#SIGNALTYPE  : EDS
#BEAMKV      : 15.000
#AZIMANGLE-dg: 0.0
#ELEVANGLE-dg: 28.5
#LIVETIME    : 999.040
#REALTIME    : 1165.388
#EDSDET      : SDUTW
##MNFWHM     : 126.3
##INSTRUMENT : MVE075582-10647-L
##SLOWTPEAK  : 0.000004000
##FASTTPEAK  : 0.000000100
##OPTICALWD  : 0.005500000
##WD         : 0.006450533
##SDDAREA    : 0.000025
##CCORR      : 260.454
##SCORR      : LIN
#SPECTRUM    : Spectral Data Starts Here
0.000
0.000
283.000
26.000
182.000
215.000
174.000
187.000
3997.000
104.000
52.000
83.000
38.000
65.000
68.000
223.000
213.000
76.000
92.000
105.000
87.000
229.000
1025.000
174.000
181.000
3772.000
4830.000
408.000
58.000
58.000
56.000
56.000
65.000
60.000
74.000
59.000
67.000
62.000
76.000
67.000
61.000
82.000
57.000
66.000
76.000
64.000
57.000
66.000
154.000
103.000
53.000
80.000
77.000
136.000
122.000
77.000
70.000
58.000
74.000
80.000
59.000
68.000
75.000
65.000
74.000
107.000
92.000
91.000
92.000
77.000
74.000
68.000
86.000
72.000
70.000
83.000
79.000
62.000
83.000
63.000
58.000
72.000
81.000
61.000
71.000
71.000
65.000
85.000
67.000
69.000
84.000
114.000
318.000
404.000
166.000
93.000
83.000
88.000
70.000
81.000
75.000
116.000
134.000
98.000
73.000
77.000
74.000
71.000
90.000
78.000
69.000
67.000
77.000
64.000
75.000
68.000
58.000
50.000
74.000
78.000
79.000
84.000
74.000
82.000
76.000
81.000
76.000
72.000
73.000
74.000
78.000
68.000
62.000
78.000
70.000
82.000
76.000
74.000
81.000
83.000
72.000
83.000
81.000
87.000
76.000
59.000
70.000
83.000
61.000
72.000
67.000
58.000
67.000
59.000
79.000
63.000
69.000
71.000
51.000
62.000
55.000
56.000
55.000
53.000
42.000
56.000
57.000
56.000
55.000
47.000
44.000
33.000
45.000
51.000
46.000
31.000
43.000
45.000
41.000
43.000
37.000
35.000
43.000
33.000
24.000
38.000
25.000
27.000
21.000
33.000
25.000
24.000
34.000
15.000
24.000
18.000
17.000
24.000
14.000
16.000
22.000
15.000
9.000
13.000
16.000
16.000
9.000
4.000
5.000
3.000
4.000
3.000
0.000
3.000
0.000
0.000
0.000
0.000
0.000
0.000
0.000
0.000
0.000
0.000
0.000
0.000
1.000
0.000
0.000
0.000
0.000
0.000
0.000
0.000
0.000
0.000
0.000
0.000
0.000
0.000
0.000
0.000
0.000
0.000
0.000
0.000
0.000
0.000
0.000
0.000
0.000
0.000
0.000
0.000
0.000
0.000
0.000
0.000
0.000
0.000
0.000
0.000
0.000
0.000
0.000
0.000
0.000
0.000
0.000
0.000
0.000
0.000
0.000
0.000
0.000
0.000
0.000
0.000
0.000
0.000
0.000
0.000
0.000
0.000
0.000
0.000
0.000
0.000
0.000
0.000
0.000
0.000
0.000
0.000
#ENDOFDATA   :