Folder: Semizbugu-microscopy/data/SEM-data_2024/artifact_surfaces/P1-336_artifact_mw_analysis_1_region

Note: README.md
# Semizbugu-microscopy
Analysis of cross-sectioned artifacts from Semizbugu to study rock coatings

File: spectrum.emsa
#FORMAT      : EMSA/MAS Spectral Data File
#VERSION     : 1.0
#TITLE       : EDS Spectrum
#DATE        : 19-SEP-2024
#TIME        : 11:20
#OWNER       : Thermo Fisher Scientific Inc.
#NPOINTS     : 2048.
#NCOLUMNS    : 1.
#XUNITS      : eV
#YUNITS      : Counts
#DATATYPE    : Y
#XPERCHAN    : 9.933
#OFFSET      : -44.878
#XLABEL      : Energy
#YLABEL      : Counts
#SIGNALTYPE  : EDS
#BEAMKV      : 15.000
#AZIMANGLE-dg: 0.0
#ELEVANGLE-dg: 28.5
#LIVETIME    : 206.859
#REALTIME    : 245.760
#EDSDET      : SDUTW
##MNFWHM     : 126.3
##INSTRUMENT : MVE075582-10647-L
##SLOWTPEAK  : 0.000004000
##FASTTPEAK  : 0.000000100
##OPTICALWD  : 0.005500000
##WD         : 0.006450533
##SDDAREA    : 0.000025
##CCORR      : 260.454
##SCORR      : LIN
#SPECTRUM    : Spectral Data Starts Here
0.000
0.000
90.000
20.000
143.000
206.000
130.000
227.000
5012.000
124.000
90.000
132.000
50.000
66.000
57.000
276.000
222.000
67.000
103.000
134.000
112.000
270.000
1247.000
235.000
203.000
4603.000
5869.000
481.000
82.000
72.000
77.000
61.000
58.000
79.000
85.000
63.000
61.000
82.000
107.000
83.000
83.000
76.000
69.000
77.000
78.000
91.000
80.000
81.000
152.000
114.000
80.000
71.000
83.000
103.000
145.000
75.000
63.000
74.000
62.000
72.000
81.000
84.000
70.000
72.000
84.000
125.000
100.000
90.000
86.000
72.000
79.000
85.000
72.000
69.000
66.000
76.000
59.000
76.000
51.000
75.000
62.000
82.000
64.000
66.000
56.000
60.000
49.000
63.000
54.000
70.000
59.000
125.000
432.000
502.000
154.000
63.000
55.000
47.000
46.000
65.000
53.000
71.000
109.000
67.000
64.000
61.000
32.000
46.000
36.000
37.000
34.000
26.000
56.000
50.000
45.000
34.000
42.000
38.000
36.000
29.000
36.000
48.000
43.000
33.000
38.000
36.000
37.000
27.000
32.000
33.000
16.000
38.000
41.000
29.000
31.000
24.000
37.000
28.000
32.000
27.000
22.000
28.000
22.000
25.000
27.000
19.000
27.000
27.000
17.000
27.000
27.000
31.000
20.000
17.000
20.000
20.000
15.000
22.000
15.000
21.000
14.000
15.000
14.000
14.000
10.000
15.000
12.000
15.000
9.000
15.000
15.000
16.000
9.000
12.000
13.000
10.000
13.000
12.000
12.000
6.000
9.000
6.000
9.000
9.000
11.000
10.000
8.000
1.000
5.000
10.000
10.000
3.000
3.000
9.000
6.000
7.000
1.000
3.000
3.000
9.000
2.000
3.000
3.000
5.000
4.000
2.000
0.000
2.000
0.000
2.000
2.000
2.000
1.000
1.000
0.000
0.000
0.000
0.000
0.000
0.000
0.000
0.000
0.000
0.000
0.000
0.000
0.000
0.000
0.000
0.000
0.000
0.000
0.000
0.000
0.000
0.000
0.000
0.000
0.000
0.000
0.000
0.000
0.000
0.000
0.000
0.000
0.000
0.000
0.000
0.000
0.000
0.000
0.000
0.000
0.000
0.000
0.000
0.000
0.000
0.000
0.000
0.000
0.000
0.000
0.000
0.000
0.000
0.000
0.000
0.000
0.000
0.000
0.000
0.000
0.000
0.000
0.000
0.000
0.000
0.000
0.000
0.000
0.000
0.000
0.000
0.000
0.000
0.000
0.000
0.000
0.000
0.000
0.000
0.000
#ENDOFDATA   :