Folder: Semizbugu-microscopy/data/SEM-data_2024/artifact_surfaces/P1-495_artifact_002_analysis_mw_region

Note: README.md
# Semizbugu-microscopy
Analysis of cross-sectioned artifacts from Semizbugu to study rock coatings

File: spectrum.emsa
#FORMAT      : EMSA/MAS Spectral Data File
#VERSION     : 1.0
#TITLE       : EDS Spectrum
#DATE        : 19-SEP-2024
#TIME        : 11:20
#OWNER       : Thermo Fisher Scientific Inc.
#NPOINTS     : 2048.
#NCOLUMNS    : 1.
#XUNITS      : eV
#YUNITS      : Counts
#DATATYPE    : Y
#XPERCHAN    : 9.933
#OFFSET      : -44.878
#XLABEL      : Energy
#YLABEL      : Counts
#SIGNALTYPE  : EDS
#BEAMKV      : 15.000
#AZIMANGLE-dg: 0.0
#ELEVANGLE-dg: 28.5
#LIVETIME    : 33.668
#REALTIME    : 41.961
#EDSDET      : SDUTW
##MNFWHM     : 126.3
##INSTRUMENT : MVE075582-10647-L
##SLOWTPEAK  : 0.000004000
##FASTTPEAK  : 0.000000100
##OPTICALWD  : 0.005500000
##WD         : 0.010588
##SDDAREA    : 0.000025
##CCORR      : 260.454
##SCORR      : LIN
#SPECTRUM    : Spectral Data Starts Here
0.000
0.000
90.000
40.000
210.000
297.000
186.000
548.000
10068.000
236.000
154.000
219.000
118.000
118.000
128.000
540.000
474.000
140.000
153.000
175.000
144.000
329.000
1670.000
271.000
197.000
4111.000
5097.000
377.000
103.000
92.000
94.000
70.000
82.000
80.000
83.000
64.000
66.000
62.000
79.000
62.000
56.000
52.000
59.000
67.000
51.000
51.000
46.000
67.000
198.000
96.000
39.000
42.000
53.000
70.000
61.000
44.000
44.000
34.000
42.000
45.000
39.000
31.000
38.000
47.000
36.000
35.000
41.000
34.000
29.000
29.000
33.000
27.000
25.000
27.000
22.000
21.000
22.000
22.000
33.000
21.000
25.000
23.000
18.000
25.000
25.000
14.000
21.000
17.000
29.000
13.000
24.000
28.000
79.000
104.000
28.000
16.000
15.000
19.000
17.000
18.000
22.000
28.000
27.000
20.000
16.000
16.000
12.000
15.000
15.000
14.000
14.000
11.000
17.000
13.000
8.000
10.000
11.000
7.000
14.000
19.000
9.000
9.000
11.000
6.000
13.000
4.000
9.000
11.000
12.000
7.000
5.000
10.000
11.000
10.000
7.000
11.000
5.000
12.000
12.000
5.000
4.000
9.000
9.000
4.000
6.000
2.000
6.000
3.000
8.000
5.000
8.000
4.000
5.000
4.000
6.000
1.000
4.000
6.000
2.000
2.000
1.000
6.000
3.000
5.000
5.000
5.000
3.000
3.000
3.000
2.000
2.000
3.000
1.000
4.000
1.000
0.000
4.000
1.000
3.000
0.000
1.000
1.000
1.000
3.000
1.000
1.000
1.000
3.000
1.000
1.000
0.000
1.000
0.000
1.000
0.000
0.000
0.000
0.000
1.000
0.000
0.000
0.000
0.000
0.000
0.000
0.000
0.000
0.000
0.000
0.000
0.000
0.000
0.000
0.000
0.000
0.000
0.000
0.000
0.000
0.000
0.000
0.000
0.000
0.000
0.000
0.000
0.000
0.000
0.000
0.000
0.000
0.000
0.000
0.000
0.000
0.000
0.000
0.000
0.000
0.000
0.000
0.000
0.000
0.000
0.000
0.000
0.000
0.000
0.000
0.000
0.000
0.000
0.000
0.000
0.000
0.000
0.000
0.000
0.000
0.000
0.000
0.000
0.000
0.000
0.000
0.000
0.000
0.000
0.000
0.000
0.000
0.000
0.000
0.000
0.000
0.000
0.000
0.000
0.000
0.000
0.000
0.000
0.000
0.000
0.000
0.000
0.000
0.000
0.000
0.000
0.000
0.000
0.000
0.000
#ENDOFDATA   :