Folder: Semizbugu-microscopy/data/SEM-data_2024/artifact_surfaces/P1-495_artifact_002_analysis_lw_region

Note: README.md
# Semizbugu-microscopy
Analysis of cross-sectioned artifacts from Semizbugu to study rock coatings

File: spectrum.emsa
#FORMAT      : EMSA/MAS Spectral Data File
#VERSION     : 1.0
#TITLE       : EDS Spectrum
#DATE        : 19-SEP-2024
#TIME        : 11:20
#OWNER       : Thermo Fisher Scientific Inc.
#NPOINTS     : 2048.
#NCOLUMNS    : 1.
#XUNITS      : eV
#YUNITS      : Counts
#DATATYPE    : Y
#XPERCHAN    : 9.933
#OFFSET      : -44.878
#XLABEL      : Energy
#YLABEL      : Counts
#SIGNALTYPE  : EDS
#BEAMKV      : 15.000
#AZIMANGLE-dg: 0.0
#ELEVANGLE-dg: 28.5
#LIVETIME    : 33.136
#REALTIME    : 40.992
#EDSDET      : SDUTW
##MNFWHM     : 126.3
##INSTRUMENT : MVE075582-10647-L
##SLOWTPEAK  : 0.000004000
##FASTTPEAK  : 0.000000100
##OPTICALWD  : 0.005500000
##WD         : 0.010588
##SDDAREA    : 0.000025
##CCORR      : 260.454
##SCORR      : LIN
#SPECTRUM    : Spectral Data Starts Here
0.000
0.000
117.000
68.000
300.000
440.000
279.000
616.000
11857.000
321.000
185.000
209.000
121.000
122.000
136.000
489.000
441.000
113.000
152.000
157.000
131.000
311.000
1356.000
195.000
178.000
3875.000
4644.000
376.000
73.000
76.000
72.000
52.000
51.000
57.000
70.000
48.000
54.000
53.000
62.000
53.000
31.000
52.000
56.000
35.000
45.000
38.000
44.000
65.000
120.000
83.000
50.000
41.000
39.000
57.000
41.000
29.000
30.000
22.000
28.000
34.000
35.000
25.000
27.000
23.000
29.000
33.000
22.000
30.000
16.000
17.000
14.000
36.000
18.000
22.000
22.000
23.000
23.000
23.000
20.000
18.000
13.000
16.000
19.000
14.000
10.000
15.000
13.000
24.000
24.000
19.000
14.000
21.000
52.000
63.000
24.000
10.000
12.000
9.000
6.000
15.000
15.000
12.000
19.000
18.000
11.000
9.000
9.000
14.000
11.000
12.000
13.000
17.000
4.000
6.000
13.000
11.000
13.000
9.000
15.000
9.000
9.000
8.000
5.000
6.000
5.000
5.000
12.000
6.000
4.000
8.000
6.000
4.000
4.000
6.000
5.000
4.000
5.000
3.000
2.000
8.000
4.000
1.000
8.000
7.000
4.000
3.000
4.000
7.000
9.000
4.000
7.000
5.000
5.000
5.000
3.000
5.000
5.000
3.000
2.000
2.000
4.000
5.000
4.000
1.000
4.000
4.000
3.000
3.000
3.000
1.000
1.000
1.000
3.000
4.000
3.000
3.000
0.000
6.000
0.000
1.000
0.000
2.000
2.000
0.000
4.000
2.000
2.000
3.000
3.000
0.000
1.000
0.000
0.000
0.000
1.000
0.000
0.000
1.000
0.000
1.000
1.000
0.000
0.000
1.000
1.000
0.000
1.000
0.000
2.000
1.000
0.000
0.000
1.000
0.000
0.000
0.000
0.000
0.000
0.000
0.000
0.000
0.000
0.000
0.000
0.000
0.000
0.000
0.000
0.000
0.000
0.000
0.000
0.000
0.000
0.000
0.000
0.000
0.000
0.000
0.000
0.000
0.000
0.000
0.000
0.000
0.000
0.000
0.000
0.000
0.000
0.000
0.000
0.000
0.000
0.000
0.000
0.000
0.000
0.000
0.000
0.000
0.000
0.000
0.000
0.000
0.000
0.000
0.000
0.000
0.000
0.000
0.000
0.000
0.000
0.000
0.000
0.000
0.000
0.000
0.000
0.000
0.000
0.000
0.000
0.000
0.000
0.000
0.000
0.000
0.000
0.000
0.000
0.000
0.000
#ENDOFDATA   :