Folder: Semizbugu-microscopy/data/SEM-data_2024/artifact_surfaces/P1-495_artifact_001_analysis_lw_region

Note: README.md
# Semizbugu-microscopy
Analysis of cross-sectioned artifacts from Semizbugu to study rock coatings

File: spectrum.emsa
#FORMAT      : EMSA/MAS Spectral Data File
#VERSION     : 1.0
#TITLE       : EDS Spectrum
#DATE        : 19-SEP-2024
#TIME        : 11:20
#OWNER       : Thermo Fisher Scientific Inc.
#NPOINTS     : 2048.
#NCOLUMNS    : 1.
#XUNITS      : eV
#YUNITS      : Counts
#DATATYPE    : Y
#XPERCHAN    : 9.933
#OFFSET      : -44.878
#XLABEL      : Energy
#YLABEL      : Counts
#SIGNALTYPE  : EDS
#BEAMKV      : 15.000
#AZIMANGLE-dg: 0.0
#ELEVANGLE-dg: 28.5
#LIVETIME    : 21.200
#REALTIME    : 27.392
#EDSDET      : SDUTW
##MNFWHM     : 126.3
##INSTRUMENT : MVE075582-10647-L
##SLOWTPEAK  : 0.000004000
##FASTTPEAK  : 0.000000100
##OPTICALWD  : 0.005500000
##WD         : 0.008395785
##SDDAREA    : 0.000025
##CCORR      : 260.454
##SCORR      : LIN
#SPECTRUM    : Spectral Data Starts Here
0.000
0.000
112.000
53.000
217.000
314.000
210.000
607.000
11864.000
290.000
179.000
267.000
113.000
121.000
141.000
558.000
462.000
115.000
147.000
161.000
146.000
293.000
1323.000
242.000
192.000
3869.000
4805.000
360.000
85.000
68.000
88.000
61.000
73.000
71.000
65.000
61.000
67.000
54.000
62.000
57.000
63.000
39.000
39.000
56.000
38.000
41.000
45.000
70.000
130.000
78.000
43.000
34.000
55.000
44.000
57.000
33.000
44.000
25.000
35.000
27.000
28.000
24.000
28.000
28.000
41.000
28.000
34.000
24.000
30.000
13.000
18.000
26.000
20.000
23.000
26.000
15.000
26.000
25.000
14.000
20.000
21.000
16.000
24.000
15.000
21.000
24.000
15.000
20.000
19.000
13.000
20.000
23.000
66.000
72.000
23.000
16.000
14.000
14.000
12.000
13.000
12.000
11.000
19.000
19.000
14.000
9.000
11.000
8.000
10.000
10.000
14.000
8.000
11.000
12.000
13.000
9.000
10.000
4.000
6.000
7.000
13.000
5.000
7.000
7.000
10.000
7.000
7.000
8.000
6.000
6.000
6.000
7.000
7.000
6.000
8.000
10.000
7.000
3.000
7.000
8.000
4.000
4.000
5.000
6.000
6.000
3.000
5.000
4.000
4.000
3.000
4.000
4.000
2.000
3.000
7.000
7.000
5.000
5.000
1.000
5.000
2.000
2.000
5.000
4.000
2.000
1.000
5.000
2.000
3.000
3.000
4.000
0.000
0.000
1.000
0.000
1.000
0.000
2.000
4.000
1.000
4.000
1.000
0.000
1.000
0.000
1.000
0.000
0.000
2.000
1.000
1.000
1.000
1.000
0.000
0.000
0.000
0.000
1.000
0.000
0.000
0.000
0.000
0.000
0.000
0.000
0.000
0.000
0.000
0.000
0.000
0.000
0.000
0.000
0.000
0.000
0.000
0.000
0.000
0.000
0.000
0.000
0.000
0.000
0.000
0.000
0.000
0.000
0.000
0.000
0.000
0.000
0.000
0.000
0.000
0.000
0.000
0.000
0.000
0.000
0.000
0.000
0.000
0.000
0.000
0.000
0.000
0.000
0.000
0.000
0.000
0.000
0.000
0.000
0.000
0.000
0.000
0.000
0.000
0.000
0.000
0.000
0.000
0.000
0.000
0.000
0.000
0.000
0.000
0.000
0.000
0.000
0.000
0.000
0.000
0.000
0.000
0.000
0.000
0.000
0.000
0.000
0.000
0.000
0.000
0.000
0.000
0.000
0.000
0.000
0.000
0.000
0.000
0.000
0.000
#ENDOFDATA   :