Folder: Semizbugu-microscopy/data/SEM-data_2024/artifact_surfaces/P1-495_artifact_001_analysis_mw_region

Note: README.md
# Semizbugu-microscopy
Analysis of cross-sectioned artifacts from Semizbugu to study rock coatings

File: spectrum.emsa
#FORMAT      : EMSA/MAS Spectral Data File
#VERSION     : 1.0
#TITLE       : EDS Spectrum
#DATE        : 19-SEP-2024
#TIME        : 11:20
#OWNER       : Thermo Fisher Scientific Inc.
#NPOINTS     : 2048.
#NCOLUMNS    : 1.
#XUNITS      : eV
#YUNITS      : Counts
#DATATYPE    : Y
#XPERCHAN    : 9.933
#OFFSET      : -44.878
#XLABEL      : Energy
#YLABEL      : Counts
#SIGNALTYPE  : EDS
#BEAMKV      : 15.000
#AZIMANGLE-dg: 0.0
#ELEVANGLE-dg: 28.5
#LIVETIME    : 30.342
#REALTIME    : 38.160
#EDSDET      : SDUTW
##MNFWHM     : 126.3
##INSTRUMENT : MVE075582-10647-L
##SLOWTPEAK  : 0.000004000
##FASTTPEAK  : 0.000000100
##OPTICALWD  : 0.005500000
##WD         : 0.008395785
##SDDAREA    : 0.000025
##CCORR      : 260.454
##SCORR      : LIN
#SPECTRUM    : Spectral Data Starts Here
0.000
0.000
61.000
32.000
191.000
236.000
177.000
473.000
9054.000
266.000
134.000
206.000
80.000
115.000
115.000
419.000
389.000
115.000
161.000
167.000
149.000
324.000
1357.000
249.000
237.000
4546.000
5516.000
492.000
110.000
114.000
116.000
75.000
65.000
86.000
85.000
71.000
63.000
67.000
79.000
68.000
66.000
66.000
60.000
49.000
55.000
56.000
64.000
71.000
161.000
91.000
66.000
59.000
68.000
88.000
89.000
62.000
45.000
52.000
36.000
47.000
47.000
42.000
35.000
48.000
47.000
50.000
42.000
40.000
43.000
37.000
39.000
43.000
45.000
31.000
33.000
40.000
35.000
31.000
29.000
22.000
35.000
24.000
26.000
22.000
26.000
30.000
25.000
24.000
26.000
32.000
27.000
37.000
127.000
130.000
53.000
29.000
24.000
17.000
23.000
12.000
26.000
27.000
28.000
23.000
19.000
15.000
15.000
12.000
21.000
11.000
12.000
8.000
13.000
14.000
10.000
12.000
10.000
9.000
12.000
17.000
11.000
15.000
20.000
11.000
9.000
17.000
15.000
10.000
19.000
11.000
7.000
12.000
6.000
15.000
8.000
6.000
4.000
7.000
6.000
13.000
8.000
9.000
9.000
7.000
13.000
4.000
3.000
7.000
10.000
9.000
2.000
3.000
2.000
4.000
4.000
4.000
4.000
5.000
2.000
8.000
5.000
1.000
4.000
4.000
2.000
5.000
0.000
3.000
5.000
5.000
1.000
1.000
0.000
3.000
2.000
3.000
2.000
2.000
4.000
2.000
1.000
1.000
1.000
4.000
2.000
4.000
3.000
1.000
1.000
0.000
0.000
3.000
2.000
0.000
0.000
1.000
0.000
0.000
2.000
0.000
1.000
0.000
0.000
0.000
0.000
0.000
0.000
0.000
0.000
0.000
0.000
0.000
0.000
0.000
0.000
0.000
0.000
0.000
0.000
0.000
0.000
0.000
0.000
0.000
0.000
0.000
0.000
0.000
0.000
0.000
0.000
0.000
0.000
0.000
0.000
0.000
0.000
0.000
0.000
0.000
0.000
0.000
0.000
0.000
0.000
0.000
0.000
0.000
0.000
0.000
0.000
0.000
0.000
0.000
0.000
0.000
0.000
0.000
0.000
0.000
0.000
0.000
0.000
0.000
0.000
0.000
0.000
0.000
0.000
0.000
0.000
0.000
0.000
0.000
0.000
0.000
0.000
0.000
0.000
0.000
0.000
0.000
0.000
0.000
0.000
0.000
0.000
0.000
0.000
0.000
0.000
0.000
0.000
0.000
#ENDOFDATA   :