Folder: Semizbugu-microscopy/data/SEM-data_2024/artifact_surfaces/P1-83_artifact_002_analysis_lw_region

Note: README.md
# Semizbugu-microscopy
Analysis of cross-sectioned artifacts from Semizbugu to study rock coatings

File: spectrum.emsa
#FORMAT      : EMSA/MAS Spectral Data File
#VERSION     : 1.0
#TITLE       : EDS Spectrum
#DATE        : 19-SEP-2024
#TIME        : 11:20
#OWNER       : Thermo Fisher Scientific Inc.
#NPOINTS     : 2048.
#NCOLUMNS    : 1.
#XUNITS      : eV
#YUNITS      : Counts
#DATATYPE    : Y
#XPERCHAN    : 9.933
#OFFSET      : -44.878
#XLABEL      : Energy
#YLABEL      : Counts
#SIGNALTYPE  : EDS
#BEAMKV      : 15.000
#AZIMANGLE-dg: 0.0
#ELEVANGLE-dg: 28.5
#LIVETIME    : 35.263
#REALTIME    : 42.961
#EDSDET      : SDUTW
##MNFWHM     : 126.3
##INSTRUMENT : MVE075582-10647-L
##SLOWTPEAK  : 0.000004000
##FASTTPEAK  : 0.000000100
##OPTICALWD  : 0.005500000
##WD         : 0.009511501
##SDDAREA    : 0.000025
##CCORR      : 260.454
##SCORR      : LIN
#SPECTRUM    : Spectral Data Starts Here
0.000
0.000
83.000
59.000
399.000
511.000
179.000
447.000
9104.000
223.000
107.000
158.000
95.000
142.000
138.000
702.000
584.000
127.000
159.000
200.000
139.000
369.000
1675.000
269.000
179.000
4216.000
5381.000
439.000
107.000
66.000
67.000
57.000
66.000
67.000
74.000
62.000
58.000
67.000
111.000
77.000
61.000
61.000
67.000
45.000
50.000
51.000
53.000
48.000
105.000
69.000
35.000
53.000
49.000
52.000
70.000
24.000
31.000
41.000
36.000
45.000
40.000
34.000
31.000
30.000
29.000
31.000
24.000
36.000
29.000
43.000
27.000
20.000
29.000
27.000
33.000
23.000
28.000
28.000
32.000
17.000
24.000
24.000
26.000
18.000
30.000
21.000
18.000
19.000
16.000
24.000
18.000
32.000
57.000
55.000
23.000
12.000
23.000
14.000
17.000
14.000
14.000
17.000
19.000
14.000
13.000
20.000
9.000
22.000
21.000
17.000
22.000
21.000
9.000
14.000
13.000
12.000
9.000
16.000
13.000
11.000
16.000
9.000
7.000
9.000
6.000
11.000
13.000
7.000
17.000
7.000
8.000
6.000
2.000
5.000
6.000
13.000
3.000
13.000
6.000
12.000
4.000
7.000
8.000
11.000
3.000
7.000
3.000
7.000
7.000
7.000
3.000
2.000
3.000
5.000
8.000
6.000
6.000
4.000
2.000
6.000
2.000
6.000
5.000
5.000
2.000
4.000
2.000
1.000
1.000
2.000
1.000
4.000
6.000
4.000
4.000
6.000
1.000
1.000
1.000
4.000
4.000
3.000
1.000
0.000
2.000
2.000
1.000
2.000
1.000
0.000
0.000
3.000
1.000
2.000
0.000
1.000
0.000
1.000
1.000
1.000
0.000
1.000
0.000
1.000
0.000
0.000
0.000
0.000
0.000
0.000
0.000
0.000
0.000
0.000
0.000
0.000
0.000
0.000
0.000
0.000
0.000
0.000
0.000
0.000
0.000
0.000
0.000
0.000
0.000
0.000
0.000
0.000
0.000
0.000
0.000
0.000
0.000
0.000
0.000
0.000
0.000
0.000
0.000
0.000
0.000
0.000
0.000
0.000
0.000
0.000
0.000
0.000
0.000
0.000
0.000
0.000
0.000
0.000
0.000
0.000
0.000
0.000
0.000
0.000
0.000
0.000
0.000
0.000
0.000
0.000
0.000
0.000
0.000
0.000
0.000
0.000
0.000
0.000
0.000
0.000
0.000
0.000
0.000
0.000
0.000
0.000
0.000
0.000
0.000
0.000
0.000
0.000
0.000
0.000
#ENDOFDATA   :