Folder: Semizbugu-microscopy/data/SEM-data_2024/artifact_surfaces/P1-83_artifact_001_analysis_lw_region

Note: README.md
# Semizbugu-microscopy
Analysis of cross-sectioned artifacts from Semizbugu to study rock coatings

File: spectrum.emsa
#FORMAT      : EMSA/MAS Spectral Data File
#VERSION     : 1.0
#TITLE       : EDS Spectrum
#DATE        : 19-SEP-2024
#TIME        : 11:20
#OWNER       : Thermo Fisher Scientific Inc.
#NPOINTS     : 2048.
#NCOLUMNS    : 1.
#XUNITS      : eV
#YUNITS      : Counts
#DATATYPE    : Y
#XPERCHAN    : 9.933
#OFFSET      : -44.878
#XLABEL      : Energy
#YLABEL      : Counts
#SIGNALTYPE  : EDS
#BEAMKV      : 15.000
#AZIMANGLE-dg: 0.0
#ELEVANGLE-dg: 28.5
#LIVETIME    : 32.455
#REALTIME    : 40.761
#EDSDET      : SDUTW
##MNFWHM     : 126.3
##INSTRUMENT : MVE075582-10647-L
##SLOWTPEAK  : 0.000004000
##FASTTPEAK  : 0.000000100
##OPTICALWD  : 0.005500000
##WD         : 0.009810498
##SDDAREA    : 0.000025
##CCORR      : 260.454
##SCORR      : LIN
#SPECTRUM    : Spectral Data Starts Here
0.000
0.000
91.000
46.000
110.000
197.000
176.000
565.000
10714.000
275.000
114.000
148.000
127.000
109.000
141.000
638.000
597.000
110.000
168.000
199.000
114.000
383.000
1778.000
274.000
191.000
4076.000
5060.000
420.000
99.000
66.000
67.000
53.000
72.000
79.000
66.000
65.000
49.000
52.000
66.000
52.000
59.000
38.000
56.000
37.000
45.000
46.000
43.000
49.000
73.000
49.000
40.000
49.000
52.000
53.000
46.000
47.000
39.000
31.000
47.000
23.000
34.000
32.000
32.000
30.000
29.000
26.000
34.000
24.000
22.000
26.000
33.000
31.000
29.000
26.000
33.000
31.000
23.000
17.000
24.000
18.000
14.000
11.000
23.000
17.000
18.000
24.000
19.000
18.000
20.000
20.000
23.000
24.000
53.000
61.000
27.000
13.000
15.000
13.000
18.000
14.000
16.000
18.000
14.000
11.000
15.000
19.000
13.000
7.000
12.000
13.000
9.000
14.000
9.000
14.000
9.000
12.000
12.000
9.000
12.000
11.000
6.000
7.000
13.000
13.000
6.000
14.000
5.000
7.000
11.000
8.000
5.000
6.000
13.000
4.000
9.000
9.000
8.000
9.000
4.000
2.000
6.000
7.000
5.000
7.000
7.000
4.000
2.000
5.000
4.000
3.000
3.000
2.000
6.000
1.000
3.000
4.000
10.000
5.000
5.000
2.000
5.000
3.000
2.000
1.000
2.000
2.000
5.000
2.000
4.000
0.000
5.000
4.000
2.000
3.000
1.000
1.000
4.000
2.000
1.000
0.000
5.000
2.000
0.000
3.000
2.000
0.000
0.000
0.000
2.000
3.000
0.000
1.000
2.000
1.000
1.000
0.000
2.000
0.000
1.000
0.000
0.000
0.000
0.000
0.000
0.000
0.000
0.000
0.000
0.000
1.000
0.000
1.000
0.000
0.000
0.000
0.000
1.000
0.000
0.000
0.000
0.000
0.000
0.000
0.000
0.000
0.000
0.000
0.000
0.000
0.000
0.000
0.000
0.000
0.000
0.000
0.000
0.000
0.000
0.000
0.000
0.000
0.000
0.000
0.000
0.000
0.000
0.000
0.000
0.000
0.000
0.000
0.000
0.000
0.000
0.000
0.000
0.000
0.000
0.000
0.000
0.000
0.000
0.000
0.000
0.000
0.000
0.000
0.000
0.000
0.000
0.000
0.000
0.000
0.000
0.000
0.000
0.000
0.000
0.000
0.000
0.000
0.000
0.000
0.000
0.000
0.000
0.000
0.000
0.000
0.000
0.000
0.000
0.000
0.000
#ENDOFDATA   :