Folder: Semizbugu-microscopy/data/SEM-data_2024/artifact_surfaces/P1-83_artifact_001_analysis_mw_region

Note: README.md
# Semizbugu-microscopy
Analysis of cross-sectioned artifacts from Semizbugu to study rock coatings

File: spectrum.emsa
#FORMAT      : EMSA/MAS Spectral Data File
#VERSION     : 1.0
#TITLE       : EDS Spectrum
#DATE        : 19-SEP-2024
#TIME        : 11:20
#OWNER       : Thermo Fisher Scientific Inc.
#NPOINTS     : 2048.
#NCOLUMNS    : 1.
#XUNITS      : eV
#YUNITS      : Counts
#DATATYPE    : Y
#XPERCHAN    : 9.933
#OFFSET      : -44.878
#XLABEL      : Energy
#YLABEL      : Counts
#SIGNALTYPE  : EDS
#BEAMKV      : 15.000
#AZIMANGLE-dg: 0.0
#ELEVANGLE-dg: 28.5
#LIVETIME    : 29.870
#REALTIME    : 37.360
#EDSDET      : SDUTW
##MNFWHM     : 126.3
##INSTRUMENT : MVE075582-10647-L
##SLOWTPEAK  : 0.000004000
##FASTTPEAK  : 0.000000100
##OPTICALWD  : 0.005500000
##WD         : 0.009810498
##SDDAREA    : 0.000025
##CCORR      : 260.454
##SCORR      : LIN
#SPECTRUM    : Spectral Data Starts Here
0.000
0.000
80.000
42.000
251.000
369.000
197.000
524.000
9815.000
278.000
177.000
267.000
106.000
120.000
122.000
632.000
540.000
144.000
181.000
176.000
134.000
307.000
1650.000
257.000
206.000
3963.000
4983.000
410.000
97.000
85.000
93.000
67.000
73.000
63.000
93.000
85.000
70.000
64.000
93.000
92.000
36.000
57.000
43.000
53.000
68.000
54.000
48.000
53.000
115.000
60.000
53.000
39.000
67.000
57.000
54.000
39.000
44.000
43.000
38.000
40.000
34.000
33.000
33.000
30.000
38.000
47.000
30.000
26.000
22.000
27.000
30.000
27.000
34.000
32.000
27.000
28.000
29.000
21.000
22.000
21.000
27.000
20.000
16.000
24.000
24.000
31.000
36.000
18.000
18.000
20.000
17.000
29.000
100.000
117.000
53.000
12.000
16.000
11.000
17.000
16.000
19.000
28.000
30.000
23.000
18.000
11.000
12.000
9.000
20.000
21.000
14.000
11.000
9.000
13.000
14.000
13.000
10.000
9.000
11.000
9.000
11.000
8.000
11.000
9.000
14.000
8.000
15.000
9.000
8.000
8.000
11.000
10.000
7.000
10.000
11.000
5.000
5.000
6.000
2.000
8.000
3.000
5.000
6.000
8.000
10.000
7.000
9.000
4.000
5.000
6.000
3.000
4.000
4.000
5.000
2.000
6.000
6.000
6.000
5.000
4.000
0.000
2.000
2.000
3.000
4.000
0.000
2.000
4.000
2.000
2.000
1.000
3.000
0.000
6.000
0.000
2.000
1.000
5.000
3.000
2.000
0.000
5.000
1.000
0.000
1.000
1.000
3.000
1.000
1.000
3.000
4.000
1.000
1.000
1.000
1.000
0.000
1.000
1.000
0.000
1.000
2.000
0.000
0.000
0.000
2.000
0.000
0.000
0.000
0.000
0.000
0.000
0.000
0.000
1.000
0.000
0.000
0.000
0.000
0.000
0.000
0.000
0.000
0.000
0.000
0.000
0.000
0.000
0.000
0.000
0.000
0.000
0.000
0.000
0.000
0.000
0.000
0.000
0.000
0.000
0.000
0.000
0.000
0.000
0.000
0.000
0.000
0.000
0.000
0.000
0.000
0.000
0.000
0.000
0.000
0.000
0.000
0.000
0.000
0.000
0.000
0.000
0.000
0.000
0.000
0.000
0.000
0.000
0.000
0.000
0.000
0.000
0.000
0.000
0.000
0.000
0.000
0.000
0.000
0.000
0.000
0.000
0.000
0.000
0.000
0.000
0.000
0.000
0.000
0.000
0.000
0.000
0.000
0.000
0.000
#ENDOFDATA   :