Folder: Semizbugu-microscopy/data/SEM-data_2024/artifact_surfaces/P1-83_artifact_002_analysis_mw_region

Note: README.md
# Semizbugu-microscopy
Analysis of cross-sectioned artifacts from Semizbugu to study rock coatings

File: spectrum.emsa
#FORMAT      : EMSA/MAS Spectral Data File
#VERSION     : 1.0
#TITLE       : EDS Spectrum
#DATE        : 19-SEP-2024
#TIME        : 11:20
#OWNER       : Thermo Fisher Scientific Inc.
#NPOINTS     : 2048.
#NCOLUMNS    : 1.
#XUNITS      : eV
#YUNITS      : Counts
#DATATYPE    : Y
#XPERCHAN    : 9.933
#OFFSET      : -44.878
#XLABEL      : Energy
#YLABEL      : Counts
#SIGNALTYPE  : EDS
#BEAMKV      : 15.000
#AZIMANGLE-dg: 0.0
#ELEVANGLE-dg: 28.5
#LIVETIME    : 28.710
#REALTIME    : 35.961
#EDSDET      : SDUTW
##MNFWHM     : 126.3
##INSTRUMENT : MVE075582-10647-L
##SLOWTPEAK  : 0.000004000
##FASTTPEAK  : 0.000000100
##OPTICALWD  : 0.005500000
##WD         : 0.009511501
##SDDAREA    : 0.000025
##CCORR      : 260.454
##SCORR      : LIN
#SPECTRUM    : Spectral Data Starts Here
0.000
0.000
67.000
57.000
250.000
369.000
208.000
521.000
10209.000
315.000
193.000
279.000
117.000
106.000
126.000
642.000
523.000
138.000
148.000
188.000
140.000
304.000
1607.000
265.000
188.000
3859.000
4868.000
412.000
86.000
113.000
98.000
63.000
68.000
72.000
83.000
67.000
80.000
65.000
115.000
79.000
64.000
68.000
58.000
58.000
42.000
73.000
52.000
57.000
107.000
67.000
45.000
48.000
42.000
73.000
63.000
31.000
26.000
42.000
40.000
35.000
44.000
36.000
36.000
34.000
27.000
37.000
45.000
28.000
30.000
23.000
26.000
33.000
29.000
27.000
31.000
27.000
18.000
39.000
23.000
25.000
22.000
17.000
23.000
18.000
24.000
37.000
30.000
24.000
14.000
16.000
22.000
43.000
132.000
183.000
56.000
13.000
19.000
13.000
17.000
13.000
19.000
18.000
36.000
29.000
15.000
7.000
16.000
17.000
10.000
11.000
11.000
9.000
15.000
19.000
14.000
9.000
11.000
9.000
12.000
10.000
16.000
13.000
8.000
13.000
7.000
9.000
8.000
7.000
7.000
8.000
9.000
10.000
8.000
7.000
5.000
9.000
7.000
5.000
8.000
0.000
7.000
2.000
12.000
5.000
8.000
3.000
9.000
8.000
6.000
5.000
11.000
2.000
3.000
6.000
4.000
7.000
1.000
6.000
2.000
4.000
5.000
5.000
5.000
4.000
4.000
1.000
3.000
3.000
7.000
7.000
1.000
4.000
5.000
5.000
1.000
2.000
6.000
3.000
4.000
2.000
3.000
3.000
2.000
1.000
2.000
0.000
1.000
0.000
1.000
0.000
1.000
6.000
0.000
0.000
0.000
1.000
0.000
1.000
1.000
2.000
0.000
1.000
0.000
1.000
1.000
0.000
1.000
0.000
0.000
0.000
0.000
0.000
1.000
0.000
1.000
0.000
0.000
0.000
0.000
0.000
0.000
0.000
0.000
0.000
0.000
0.000
0.000
0.000
0.000
0.000
0.000
0.000
0.000
0.000
0.000
0.000
0.000
0.000
0.000
0.000
0.000
0.000
0.000
0.000
0.000
0.000
0.000
0.000
0.000
0.000
0.000
0.000
0.000
0.000
0.000
0.000
0.000
0.000
0.000
0.000
0.000
0.000
0.000
0.000
0.000
0.000
0.000
0.000
0.000
0.000
0.000
0.000
0.000
0.000
0.000
0.000
0.000
0.000
0.000
0.000
0.000
0.000
0.000
0.000
0.000
0.000
0.000
0.000
0.000
0.000
0.000
0.000
0.000
0.000
#ENDOFDATA   :