Folder: Semizbugu-microscopy/data/SEM-data_2024/artifact_surfaces/P2-791_artifact_001_analysis_lw_region

Note: README.md
# Semizbugu-microscopy
Analysis of cross-sectioned artifacts from Semizbugu to study rock coatings

File: spectrum.emsa
#FORMAT      : EMSA/MAS Spectral Data File
#VERSION     : 1.0
#TITLE       : EDS Spectrum
#DATE        : 19-SEP-2024
#TIME        : 11:20
#OWNER       : Thermo Fisher Scientific Inc.
#NPOINTS     : 2048.
#NCOLUMNS    : 1.
#XUNITS      : eV
#YUNITS      : Counts
#DATATYPE    : Y
#XPERCHAN    : 9.933
#OFFSET      : -44.878
#XLABEL      : Energy
#YLABEL      : Counts
#SIGNALTYPE  : EDS
#BEAMKV      : 15.000
#AZIMANGLE-dg: 0.0
#ELEVANGLE-dg: 28.5
#LIVETIME    : 358.573
#REALTIME    : 418.591
#EDSDET      : SDUTW
##MNFWHM     : 126.3
##INSTRUMENT : MVE075582-10647-L
##SLOWTPEAK  : 0.000004000
##FASTTPEAK  : 0.000000100
##OPTICALWD  : 0.005500000
##WD         : 0.0151784
##SDDAREA    : 0.000025
##CCORR      : 260.454
##SCORR      : LIN
#SPECTRUM    : Spectral Data Starts Here
0.000
0.000
162.000
56.000
226.000
345.000
349.000
531.000
9987.000
276.000
157.000
209.000
128.000
126.000
125.000
715.000
618.000
101.000
149.000
154.000
129.000
356.000
1857.000
285.000
204.000
3814.000
4827.000
413.000
82.000
81.000
78.000
73.000
65.000
41.000
54.000
61.000
58.000
59.000
70.000
67.000
56.000
44.000
62.000
39.000
47.000
48.000
38.000
56.000
109.000
69.000
47.000
44.000
45.000
59.000
44.000
28.000
33.000
32.000
42.000
33.000
34.000
34.000
39.000
43.000
35.000
45.000
41.000
37.000
21.000
27.000
33.000
19.000
26.000
16.000
18.000
31.000
23.000
25.000
26.000
15.000
20.000
23.000
30.000
29.000
21.000
17.000
22.000
23.000
17.000
22.000
26.000
33.000
86.000
101.000
31.000
15.000
17.000
11.000
15.000
13.000
24.000
13.000
27.000
20.000
15.000
18.000
12.000
13.000
13.000
8.000
16.000
12.000
12.000
17.000
10.000
8.000
5.000
5.000
12.000
8.000
12.000
12.000
9.000
9.000
10.000
12.000
7.000
5.000
12.000
9.000
6.000
6.000
6.000
11.000
10.000
9.000
3.000
7.000
12.000
7.000
6.000
11.000
6.000
5.000
6.000
4.000
6.000
3.000
4.000
3.000
2.000
7.000
5.000
6.000
3.000
1.000
2.000
5.000
2.000
0.000
5.000
6.000
3.000
5.000
4.000
2.000
3.000
5.000
7.000
0.000
2.000
6.000
2.000
1.000
4.000
7.000
0.000
3.000
1.000
3.000
2.000
1.000
5.000
2.000
3.000
1.000
1.000
4.000
1.000
1.000
1.000
1.000
0.000
2.000
1.000
1.000
0.000
0.000
0.000
2.000
1.000
0.000
1.000
0.000
1.000
0.000
0.000
1.000
0.000
0.000
0.000
0.000
0.000
1.000
0.000
0.000
0.000
0.000
0.000
0.000
0.000
0.000
0.000
0.000
0.000
0.000
0.000
0.000
0.000
0.000
0.000
0.000
0.000
0.000
0.000
0.000
0.000
0.000
0.000
0.000
0.000
0.000
0.000
0.000
0.000
0.000
0.000
0.000
0.000
0.000
0.000
0.000
0.000
0.000
0.000
0.000
0.000
0.000
0.000
0.000
0.000
0.000
0.000
0.000
0.000
0.000
0.000
0.000
0.000
0.000
0.000
0.000
0.000
0.000
0.000
0.000
0.000
0.000
0.000
0.000
0.000
0.000
0.000
0.000
0.000
0.000
0.000
0.000
0.000
0.000
0.000
0.000
0.000
0.000
#ENDOFDATA   :