Folder: Semizbugu-microscopy/data/SEM-data_2024/artifact_surfaces/P2-791_artifact_001_analysis_mw_region

Note: README.md
# Semizbugu-microscopy
Analysis of cross-sectioned artifacts from Semizbugu to study rock coatings

File: spectrum.emsa
#FORMAT      : EMSA/MAS Spectral Data File
#VERSION     : 1.0
#TITLE       : EDS Spectrum
#DATE        : 19-SEP-2024
#TIME        : 11:20
#OWNER       : Thermo Fisher Scientific Inc.
#NPOINTS     : 2048.
#NCOLUMNS    : 1.
#XUNITS      : eV
#YUNITS      : Counts
#DATATYPE    : Y
#XPERCHAN    : 9.933
#OFFSET      : -44.878
#XLABEL      : Energy
#YLABEL      : Counts
#SIGNALTYPE  : EDS
#BEAMKV      : 15.000
#AZIMANGLE-dg: 0.0
#ELEVANGLE-dg: 28.5
#LIVETIME    : 198.886
#REALTIME    : 234.760
#EDSDET      : SDUTW
##MNFWHM     : 126.3
##INSTRUMENT : MVE075582-10647-L
##SLOWTPEAK  : 0.000004000
##FASTTPEAK  : 0.000000100
##OPTICALWD  : 0.005500000
##WD         : 0.0151784
##SDDAREA    : 0.000025
##CCORR      : 260.454
##SCORR      : LIN
#SPECTRUM    : Spectral Data Starts Here
0.000
0.000
142.000
42.000
154.000
245.000
296.000
565.000
10233.000
336.000
272.000
420.000
124.000
101.000
118.000
535.000
460.000
130.000
185.000
183.000
130.000
328.000
1663.000
250.000
177.000
3460.000
4326.000
353.000
98.000
130.000
132.000
93.000
70.000
78.000
91.000
79.000
79.000
78.000
104.000
58.000
62.000
74.000
70.000
62.000
44.000
62.000
45.000
67.000
113.000
73.000
37.000
45.000
42.000
46.000
63.000
45.000
40.000
30.000
40.000
47.000
37.000
36.000
29.000
22.000
40.000
65.000
49.000
37.000
35.000
25.000
33.000
27.000
34.000
31.000
39.000
35.000
29.000
26.000
21.000
29.000
19.000
18.000
25.000
16.000
21.000
32.000
22.000
21.000
20.000
14.000
24.000
66.000
236.000
293.000
97.000
21.000
25.000
21.000
16.000
14.000
18.000
33.000
75.000
48.000
30.000
13.000
17.000
11.000
18.000
12.000
19.000
11.000
15.000
10.000
15.000
16.000
14.000
12.000
14.000
13.000
7.000
11.000
7.000
16.000
12.000
11.000
8.000
11.000
6.000
14.000
9.000
6.000
12.000
10.000
13.000
10.000
7.000
14.000
11.000
12.000
3.000
8.000
9.000
8.000
7.000
9.000
4.000
8.000
5.000
8.000
5.000
7.000
6.000
5.000
5.000
4.000
3.000
6.000
7.000
4.000
3.000
5.000
3.000
3.000
5.000
3.000
4.000
1.000
3.000
3.000
2.000
2.000
5.000
2.000
5.000
3.000
3.000
1.000
0.000
1.000
1.000
2.000
1.000
0.000
4.000
2.000
2.000
1.000
1.000
1.000
4.000
4.000
0.000
3.000
0.000
0.000
0.000
1.000
0.000
0.000
0.000
2.000
1.000
1.000
0.000
1.000
1.000
1.000
0.000
1.000
0.000
0.000
0.000
0.000
0.000
0.000
0.000
0.000
0.000
0.000
0.000
0.000
0.000
0.000
0.000
0.000
0.000
0.000
0.000
0.000
0.000
0.000
0.000
0.000
0.000
0.000
0.000
0.000
0.000
0.000
0.000
0.000
0.000
0.000
0.000
0.000
0.000
0.000
0.000
0.000
0.000
0.000
0.000
0.000
0.000
0.000
0.000
0.000
0.000
0.000
0.000
0.000
0.000
0.000
0.000
0.000
0.000
0.000
0.000
0.000
0.000
0.000
0.000
0.000
0.000
0.000
0.000
0.000
0.000
0.000
0.000
0.000
0.000
0.000
0.000
0.000
0.000
0.000
0.000
0.000
0.000
0.000
0.000
0.000
#ENDOFDATA   :