Folder: Semizbugu-microscopy/data/SEM-data_2024/artifact_surfaces/P2-791_artifact_002_analysis_mw_region

Note: README.md
# Semizbugu-microscopy
Analysis of cross-sectioned artifacts from Semizbugu to study rock coatings

File: spectrum.emsa
#FORMAT      : EMSA/MAS Spectral Data File
#VERSION     : 1.0
#TITLE       : EDS Spectrum
#DATE        : 19-SEP-2024
#TIME        : 11:20
#OWNER       : Thermo Fisher Scientific Inc.
#NPOINTS     : 2048.
#NCOLUMNS    : 1.
#XUNITS      : eV
#YUNITS      : Counts
#DATATYPE    : Y
#XPERCHAN    : 9.933
#OFFSET      : -44.878
#XLABEL      : Energy
#YLABEL      : Counts
#SIGNALTYPE  : EDS
#BEAMKV      : 15.000
#AZIMANGLE-dg: 0.0
#ELEVANGLE-dg: 28.5
#LIVETIME    : 201.261
#REALTIME    : 236.160
#EDSDET      : SDUTW
##MNFWHM     : 126.3
##INSTRUMENT : MVE075582-10647-L
##SLOWTPEAK  : 0.000004000
##FASTTPEAK  : 0.000000100
##OPTICALWD  : 0.005500000
##WD         : 0.0148724
##SDDAREA    : 0.000025
##CCORR      : 260.454
##SCORR      : LIN
#SPECTRUM    : Spectral Data Starts Here
0.000
0.000
100.000
53.000
242.000
329.000
219.000
481.000
9478.000
289.000
178.000
294.000
92.000
104.000
136.000
560.000
529.000
130.000
192.000
216.000
153.000
345.000
1778.000
251.000
206.000
3956.000
4904.000
400.000
103.000
92.000
102.000
64.000
73.000
84.000
80.000
93.000
66.000
61.000
78.000
78.000
62.000
63.000
49.000
62.000
60.000
49.000
64.000
49.000
96.000
67.000
44.000
51.000
43.000
52.000
66.000
48.000
53.000
36.000
44.000
39.000
36.000
35.000
40.000
36.000
41.000
41.000
44.000
36.000
35.000
38.000
24.000
28.000
38.000
32.000
23.000
32.000
23.000
22.000
25.000
27.000
20.000
21.000
26.000
27.000
30.000
37.000
20.000
19.000
16.000
24.000
23.000
47.000
162.000
159.000
60.000
19.000
19.000
24.000
17.000
19.000
15.000
22.000
40.000
32.000
21.000
7.000
20.000
14.000
19.000
16.000
12.000
7.000
14.000
10.000
14.000
17.000
13.000
14.000
9.000
13.000
11.000
8.000
13.000
11.000
15.000
6.000
5.000
11.000
11.000
8.000
6.000
21.000
3.000
13.000
8.000
6.000
14.000
5.000
3.000
3.000
8.000
5.000
4.000
11.000
5.000
6.000
5.000
6.000
6.000
0.000
5.000
4.000
5.000
1.000
8.000
6.000
1.000
6.000
5.000
6.000
5.000
3.000
2.000
4.000
2.000
8.000
6.000
2.000
0.000
2.000
1.000
1.000
2.000
3.000
1.000
4.000
3.000
5.000
3.000
1.000
0.000
1.000
1.000
1.000
1.000
3.000
1.000
1.000
2.000
1.000
1.000
3.000
1.000
2.000
2.000
2.000
1.000
1.000
0.000
1.000
0.000
0.000
0.000
1.000
1.000
0.000
0.000
1.000
0.000
0.000
1.000
0.000
0.000
0.000
0.000
0.000
0.000
0.000
0.000
0.000
0.000
0.000
0.000
0.000
0.000
0.000
0.000
0.000
0.000
0.000
0.000
0.000
0.000
0.000
0.000
0.000
0.000
0.000
0.000
0.000
0.000
0.000
0.000
0.000
0.000
0.000
0.000
0.000
0.000
0.000
0.000
0.000
0.000
0.000
0.000
0.000
0.000
0.000
0.000
0.000
0.000
0.000
0.000
0.000
0.000
0.000
0.000
0.000
0.000
0.000
0.000
0.000
0.000
0.000
0.000
0.000
0.000
0.000
0.000
0.000
0.000
0.000
0.000
0.000
0.000
0.000
0.000
0.000
0.000
0.000
0.000
0.000
0.000
0.000
#ENDOFDATA   :