Folder: Semizbugu-microscopy/data/SEM-data_2024/artifact_surfaces/P2-791_artifact_002_analysis_lw_region

Note: README.md
# Semizbugu-microscopy
Analysis of cross-sectioned artifacts from Semizbugu to study rock coatings

File: spectrum.emsa
#FORMAT      : EMSA/MAS Spectral Data File
#VERSION     : 1.0
#TITLE       : EDS Spectrum
#DATE        : 19-SEP-2024
#TIME        : 11:20
#OWNER       : Thermo Fisher Scientific Inc.
#NPOINTS     : 2048.
#NCOLUMNS    : 1.
#XUNITS      : eV
#YUNITS      : Counts
#DATATYPE    : Y
#XPERCHAN    : 9.933
#OFFSET      : -44.878
#XLABEL      : Energy
#YLABEL      : Counts
#SIGNALTYPE  : EDS
#BEAMKV      : 15.000
#AZIMANGLE-dg: 0.0
#ELEVANGLE-dg: 28.5
#LIVETIME    : 338.511
#REALTIME    : 397.991
#EDSDET      : SDUTW
##MNFWHM     : 126.3
##INSTRUMENT : MVE075582-10647-L
##SLOWTPEAK  : 0.000004000
##FASTTPEAK  : 0.000000100
##OPTICALWD  : 0.005500000
##WD         : 0.0148724
##SDDAREA    : 0.000025
##CCORR      : 260.454
##SCORR      : LIN
#SPECTRUM    : Spectral Data Starts Here
0.000
0.000
157.000
46.000
136.000
201.000
305.000
509.000
9980.000
260.000
121.000
177.000
96.000
110.000
119.000
633.000
540.000
105.000
162.000
157.000
126.000
357.000
1956.000
293.000
239.000
4007.000
5194.000
430.000
76.000
83.000
60.000
65.000
61.000
72.000
55.000
63.000
64.000
55.000
79.000
49.000
54.000
58.000
47.000
47.000
48.000
47.000
56.000
51.000
74.000
59.000
49.000
39.000
52.000
47.000
70.000
33.000
33.000
41.000
33.000
32.000
35.000
25.000
27.000
31.000
34.000
49.000
40.000
27.000
28.000
30.000
42.000
18.000
25.000
30.000
24.000
23.000
25.000
28.000
23.000
19.000
17.000
19.000
22.000
19.000
24.000
18.000
18.000
19.000
21.000
22.000
21.000
28.000
57.000
82.000
25.000
20.000
15.000
17.000
25.000
5.000
12.000
19.000
25.000
17.000
17.000
10.000
17.000
12.000
16.000
14.000
16.000
12.000
11.000
8.000
12.000
19.000
10.000
13.000
20.000
8.000
11.000
6.000
11.000
6.000
11.000
10.000
5.000
12.000
10.000
8.000
7.000
8.000
9.000
9.000
6.000
9.000
9.000
7.000
8.000
9.000
5.000
9.000
6.000
7.000
2.000
5.000
8.000
4.000
9.000
6.000
3.000
6.000
6.000
8.000
7.000
3.000
4.000
5.000
4.000
2.000
5.000
4.000
4.000
1.000
2.000
5.000
1.000
5.000
1.000
7.000
2.000
4.000
2.000
4.000
0.000
4.000
4.000
2.000
3.000
3.000
6.000
1.000
1.000
0.000
2.000
1.000
3.000
2.000
0.000
1.000
1.000
2.000
1.000
3.000
4.000
2.000
0.000
1.000
2.000
1.000
0.000
1.000
1.000
0.000
2.000
0.000
0.000
0.000
1.000
0.000
0.000
0.000
0.000
0.000
0.000
0.000
0.000
0.000
0.000
0.000
0.000
0.000
0.000
0.000
0.000
0.000
0.000
0.000
0.000
0.000
0.000
0.000
0.000
0.000
0.000
0.000
0.000
0.000
0.000
0.000
0.000
0.000
0.000
0.000
0.000
0.000
0.000
0.000
0.000
0.000
0.000
0.000
0.000
0.000
0.000
0.000
0.000
0.000
0.000
0.000
0.000
0.000
0.000
0.000
0.000
0.000
0.000
0.000
0.000
0.000
0.000
0.000
0.000
0.000
0.000
0.000
0.000
0.000
0.000
0.000
0.000
0.000
0.000
0.000
0.000
0.000
0.000
0.000
0.000
0.000
0.000
0.000
0.000
0.000
#ENDOFDATA   :