Folder: Semizbugu-microscopy/data/SEM-data_2024/artifact_surfaces/P5-1566_artifact_001_analysis_lw_region

Note: README.md
# Semizbugu-microscopy
Analysis of cross-sectioned artifacts from Semizbugu to study rock coatings

File: spectrum.emsa
#FORMAT      : EMSA/MAS Spectral Data File
#VERSION     : 1.0
#TITLE       : EDS Spectrum
#DATE        : 19-SEP-2024
#TIME        : 11:20
#OWNER       : Thermo Fisher Scientific Inc.
#NPOINTS     : 2048.
#NCOLUMNS    : 1.
#XUNITS      : eV
#YUNITS      : Counts
#DATATYPE    : Y
#XPERCHAN    : 9.933
#OFFSET      : -44.878
#XLABEL      : Energy
#YLABEL      : Counts
#SIGNALTYPE  : EDS
#BEAMKV      : 15.000
#AZIMANGLE-dg: 0.0
#ELEVANGLE-dg: 28.5
#LIVETIME    : 58.764
#REALTIME    : 70.961
#EDSDET      : SDUTW
##MNFWHM     : 126.3
##INSTRUMENT : MVE075582-10647-L
##SLOWTPEAK  : 0.000004000
##FASTTPEAK  : 0.000000100
##OPTICALWD  : 0.005500000
##WD         : 0.0112519
##SDDAREA    : 0.000025
##CCORR      : 260.454
##SCORR      : LIN
#SPECTRUM    : Spectral Data Starts Here
0.000
0.000
89.000
45.000
231.000
335.000
181.000
503.000
9659.000
249.000
156.000
209.000
94.000
96.000
138.000
447.000
424.000
137.000
164.000
208.000
121.000
381.000
1875.000
260.000
182.000
3888.000
4897.000
399.000
103.000
86.000
81.000
83.000
87.000
70.000
71.000
83.000
69.000
82.000
76.000
63.000
66.000
56.000
52.000
57.000
52.000
48.000
48.000
78.000
256.000
129.000
37.000
44.000
62.000
89.000
106.000
46.000
38.000
51.000
47.000
42.000
37.000
40.000
42.000
32.000
33.000
72.000
57.000
39.000
32.000
29.000
36.000
36.000
39.000
39.000
29.000
43.000
30.000
29.000
30.000
18.000
27.000
23.000
19.000
21.000
20.000
21.000
23.000
19.000
18.000
20.000
30.000
30.000
87.000
89.000
24.000
15.000
14.000
8.000
23.000
15.000
14.000
22.000
26.000
34.000
21.000
19.000
17.000
10.000
17.000
20.000
13.000
11.000
9.000
10.000
6.000
13.000
17.000
13.000
5.000
17.000
4.000
9.000
9.000
13.000
10.000
7.000
7.000
9.000
6.000
8.000
7.000
7.000
8.000
6.000
6.000
7.000
7.000
9.000
5.000
9.000
2.000
7.000
11.000
3.000
8.000
5.000
8.000
8.000
3.000
8.000
3.000
6.000
3.000
4.000
6.000
7.000
6.000
1.000
1.000
3.000
6.000
7.000
2.000
10.000
1.000
4.000
3.000
0.000
1.000
1.000
3.000
2.000
3.000
4.000
2.000
2.000
3.000
3.000
1.000
1.000
2.000
1.000
1.000
2.000
1.000
0.000
2.000
0.000
1.000
1.000
2.000
2.000
1.000
1.000
1.000
1.000
1.000
5.000
0.000
1.000
1.000
1.000
0.000
0.000
0.000
0.000
0.000
0.000
0.000
1.000
0.000
0.000
0.000
0.000
0.000
0.000
0.000
0.000
0.000
0.000
0.000
0.000
0.000
0.000
0.000
0.000
0.000
0.000
0.000
0.000
0.000
0.000
0.000
0.000
0.000
0.000
0.000
0.000
0.000
0.000
0.000
0.000
0.000
0.000
0.000
0.000
0.000
0.000
0.000
0.000
0.000
0.000
0.000
0.000
0.000
0.000
0.000
0.000
0.000
0.000
0.000
0.000
0.000
0.000
0.000
0.000
0.000
0.000
0.000
0.000
0.000
0.000
0.000
0.000
0.000
0.000
0.000
0.000
0.000
0.000
0.000
0.000
0.000
0.000
0.000
0.000
0.000
0.000
0.000
0.000
0.000
0.000
0.000
0.000
#ENDOFDATA   :