Folder: Semizbugu-microscopy/data/SEM-data_2024/artifact_surfaces/P5-1777_artifact_001_analysis_mw_region

Note: README.md
# Semizbugu-microscopy
Analysis of cross-sectioned artifacts from Semizbugu to study rock coatings

File: spectrum.emsa
#FORMAT      : EMSA/MAS Spectral Data File
#VERSION     : 1.0
#TITLE       : EDS Spectrum
#DATE        : 19-SEP-2024
#TIME        : 11:20
#OWNER       : Thermo Fisher Scientific Inc.
#NPOINTS     : 2048.
#NCOLUMNS    : 1.
#XUNITS      : eV
#YUNITS      : Counts
#DATATYPE    : Y
#XPERCHAN    : 9.933
#OFFSET      : -44.878
#XLABEL      : Energy
#YLABEL      : Counts
#SIGNALTYPE  : EDS
#BEAMKV      : 15.000
#AZIMANGLE-dg: 0.0
#ELEVANGLE-dg: 28.5
#LIVETIME    : 27.793
#REALTIME    : 35.162
#EDSDET      : SDUTW
##MNFWHM     : 126.3
##INSTRUMENT : MVE075582-10647-L
##SLOWTPEAK  : 0.000004000
##FASTTPEAK  : 0.000000100
##OPTICALWD  : 0.005500000
##WD         : 0.009608297
##SDDAREA    : 0.000025
##CCORR      : 260.454
##SCORR      : LIN
#SPECTRUM    : Spectral Data Starts Here
0.000
0.000
70.000
44.000
197.000
268.000
210.000
547.000
10832.000
300.000
242.000
347.000
116.000
121.000
147.000
591.000
549.000
134.000
187.000
195.000
138.000
388.000
1817.000
276.000
192.000
3481.000
4467.000
371.000
90.000
99.000
103.000
69.000
68.000
91.000
81.000
65.000
60.000
57.000
80.000
65.000
78.000
61.000
64.000
53.000
57.000
44.000
49.000
68.000
142.000
94.000
41.000
35.000
53.000
61.000
67.000
34.000
45.000
50.000
35.000
32.000
33.000
31.000
37.000
32.000
41.000
55.000
52.000
37.000
30.000
32.000
21.000
32.000
31.000
32.000
19.000
33.000
24.000
27.000
19.000
21.000
16.000
19.000
18.000
20.000
22.000
30.000
17.000
26.000
24.000
20.000
18.000
44.000
171.000
188.000
69.000
26.000
14.000
15.000
23.000
14.000
16.000
25.000
40.000
19.000
9.000
14.000
14.000
9.000
14.000
11.000
14.000
15.000
21.000
7.000
8.000
11.000
11.000
14.000
10.000
5.000
16.000
10.000
9.000
13.000
9.000
8.000
9.000
5.000
9.000
14.000
3.000
12.000
11.000
10.000
14.000
8.000
5.000
6.000
5.000
6.000
8.000
7.000
15.000
4.000
5.000
6.000
8.000
5.000
4.000
10.000
5.000
3.000
4.000
5.000
1.000
6.000
4.000
7.000
3.000
3.000
2.000
5.000
3.000
5.000
3.000
7.000
3.000
5.000
7.000
4.000
6.000
2.000
1.000
1.000
1.000
6.000
4.000
1.000
3.000
3.000
0.000
1.000
1.000
2.000
2.000
1.000
2.000
2.000
0.000
0.000
2.000
1.000
2.000
0.000
0.000
0.000
1.000
0.000
0.000
0.000
0.000
0.000
0.000
0.000
1.000
1.000
0.000
0.000
0.000
0.000
0.000
0.000
0.000
0.000
0.000
0.000
0.000
0.000
0.000
0.000
0.000
0.000
0.000
0.000
0.000
0.000
0.000
0.000
0.000
0.000
0.000
0.000
0.000
0.000
0.000
0.000
0.000
0.000
0.000
0.000
0.000
0.000
0.000
0.000
0.000
0.000
0.000
0.000
0.000
0.000
0.000
0.000
0.000
0.000
0.000
0.000
0.000
0.000
0.000
0.000
0.000
0.000
0.000
0.000
0.000
0.000
0.000
0.000
0.000
0.000
0.000
0.000
0.000
0.000
0.000
0.000
0.000
0.000
0.000
0.000
0.000
0.000
0.000
0.000
0.000
0.000
0.000
0.000
0.000
0.000
0.000
0.000
0.000
0.000
#ENDOFDATA   :