Folder: Semizbugu-microscopy/data/SEM-data_2024/artifact_surfaces/P5-1843_artifact_001_analysis_mw_region

Note: README.md
# Semizbugu-microscopy
Analysis of cross-sectioned artifacts from Semizbugu to study rock coatings

File: spectrum.emsa
#FORMAT      : EMSA/MAS Spectral Data File
#VERSION     : 1.0
#TITLE       : EDS Spectrum
#DATE        : 19-SEP-2024
#TIME        : 11:20
#OWNER       : Thermo Fisher Scientific Inc.
#NPOINTS     : 2048.
#NCOLUMNS    : 1.
#XUNITS      : eV
#YUNITS      : Counts
#DATATYPE    : Y
#XPERCHAN    : 9.933
#OFFSET      : -44.878
#XLABEL      : Energy
#YLABEL      : Counts
#SIGNALTYPE  : EDS
#BEAMKV      : 15.000
#AZIMANGLE-dg: 0.0
#ELEVANGLE-dg: 28.5
#LIVETIME    : 32.974
#REALTIME    : 40.761
#EDSDET      : SDUTW
##MNFWHM     : 126.3
##INSTRUMENT : MVE075582-10647-L
##SLOWTPEAK  : 0.000004000
##FASTTPEAK  : 0.000000100
##OPTICALWD  : 0.005500000
##WD         : 0.009952556
##SDDAREA    : 0.000025
##CCORR      : 260.454
##SCORR      : LIN
#SPECTRUM    : Spectral Data Starts Here
0.000
0.000
77.000
47.000
274.000
371.000
211.000
524.000
10386.000
313.000
239.000
385.000
119.000
129.000
121.000
411.000
366.000
142.000
220.000
272.000
177.000
362.000
1624.000
245.000
184.000
3557.000
4361.000
391.000
111.000
107.000
95.000
67.000
77.000
88.000
91.000
76.000
71.000
65.000
87.000
78.000
62.000
69.000
63.000
50.000
66.000
55.000
59.000
64.000
179.000
120.000
55.000
51.000
53.000
76.000
91.000
32.000
42.000
42.000
49.000
44.000
32.000
27.000
37.000
39.000
31.000
45.000
52.000
25.000
24.000
31.000
28.000
37.000
37.000
32.000
27.000
21.000
23.000
32.000
26.000
22.000
20.000
22.000
20.000
22.000
36.000
28.000
25.000
18.000
20.000
28.000
22.000
45.000
190.000
216.000
76.000
21.000
15.000
16.000
22.000
15.000
24.000
30.000
32.000
30.000
16.000
10.000
17.000
13.000
13.000
11.000
12.000
12.000
16.000
15.000
12.000
8.000
13.000
13.000
8.000
15.000
11.000
9.000
7.000
10.000
7.000
14.000
17.000
6.000
8.000
3.000
9.000
9.000
12.000
7.000
5.000
4.000
14.000
11.000
10.000
4.000
17.000
2.000
10.000
9.000
6.000
3.000
3.000
6.000
5.000
2.000
4.000
2.000
2.000
5.000
4.000
3.000
3.000
4.000
4.000
5.000
4.000
4.000
1.000
1.000
2.000
6.000
3.000
2.000
2.000
4.000
2.000
3.000
2.000
1.000
4.000
2.000
1.000
5.000
4.000
1.000
3.000
3.000
1.000
1.000
0.000
3.000
2.000
1.000
2.000
0.000
0.000
0.000
2.000
5.000
0.000
0.000
0.000
1.000
0.000
1.000
0.000
0.000
1.000
0.000
0.000
0.000
0.000
0.000
0.000
0.000
0.000
0.000
0.000
0.000
0.000
0.000
0.000
0.000
0.000
0.000
0.000
0.000
0.000
0.000
0.000
0.000
0.000
0.000
0.000
0.000
0.000
0.000
0.000
0.000
0.000
0.000
0.000
0.000
0.000
0.000
0.000
0.000
0.000
0.000
0.000
0.000
0.000
0.000
0.000
0.000
0.000
0.000
0.000
0.000
0.000
0.000
0.000
0.000
0.000
0.000
0.000
0.000
0.000
0.000
0.000
0.000
0.000
0.000
0.000
0.000
0.000
0.000
0.000
0.000
0.000
0.000
0.000
0.000
0.000
0.000
0.000
0.000
0.000
0.000
0.000
0.000
0.000
0.000
0.000
0.000
0.000
0.000
0.000
0.000
#ENDOFDATA   :