Folder: Semizbugu-microscopy/data/SEM-data_2024/artifact_surfaces/P5-1777_artifact_001_analysis_lw_region

Note: README.md
# Semizbugu-microscopy
Analysis of cross-sectioned artifacts from Semizbugu to study rock coatings

File: spectrum.emsa
#FORMAT      : EMSA/MAS Spectral Data File
#VERSION     : 1.0
#TITLE       : EDS Spectrum
#DATE        : 19-SEP-2024
#TIME        : 11:20
#OWNER       : Thermo Fisher Scientific Inc.
#NPOINTS     : 2048.
#NCOLUMNS    : 1.
#XUNITS      : eV
#YUNITS      : Counts
#DATATYPE    : Y
#XPERCHAN    : 9.933
#OFFSET      : -44.878
#XLABEL      : Energy
#YLABEL      : Counts
#SIGNALTYPE  : EDS
#BEAMKV      : 15.000
#AZIMANGLE-dg: 0.0
#ELEVANGLE-dg: 28.5
#LIVETIME    : 30.729
#REALTIME    : 38.592
#EDSDET      : SDUTW
##MNFWHM     : 126.3
##INSTRUMENT : MVE075582-10647-L
##SLOWTPEAK  : 0.000004000
##FASTTPEAK  : 0.000000100
##OPTICALWD  : 0.005500000
##WD         : 0.009608297
##SDDAREA    : 0.000025
##CCORR      : 260.454
##SCORR      : LIN
#SPECTRUM    : Spectral Data Starts Here
0.000
0.000
82.000
47.000
200.000
246.000
221.000
560.000
10803.000
338.000
285.000
483.000
126.000
120.000
149.000
540.000
438.000
117.000
186.000
198.000
133.000
321.000
1666.000
235.000
211.000
3291.000
4257.000
415.000
100.000
111.000
141.000
99.000
85.000
86.000
80.000
84.000
54.000
75.000
72.000
74.000
59.000
62.000
56.000
51.000
57.000
51.000
71.000
59.000
110.000
98.000
60.000
48.000
54.000
72.000
81.000
56.000
49.000
43.000
39.000
45.000
37.000
40.000
35.000
38.000
34.000
44.000
49.000
45.000
33.000
27.000
31.000
33.000
28.000
26.000
29.000
26.000
28.000
30.000
25.000
19.000
21.000
22.000
32.000
19.000
24.000
26.000
35.000
15.000
21.000
20.000
28.000
58.000
219.000
240.000
73.000
17.000
20.000
21.000
19.000
16.000
18.000
27.000
39.000
39.000
15.000
13.000
13.000
9.000
22.000
16.000
14.000
16.000
12.000
15.000
17.000
16.000
8.000
8.000
12.000
10.000
6.000
12.000
11.000
15.000
8.000
15.000
9.000
13.000
8.000
7.000
15.000
9.000
6.000
7.000
12.000
8.000
8.000
8.000
6.000
4.000
8.000
4.000
10.000
5.000
8.000
8.000
7.000
5.000
6.000
14.000
6.000
4.000
6.000
1.000
5.000
5.000
9.000
3.000
4.000
2.000
2.000
0.000
6.000
3.000
4.000
3.000
2.000
2.000
3.000
1.000
0.000
4.000
1.000
3.000
2.000
4.000
2.000
1.000
2.000
3.000
2.000
4.000
2.000
3.000
5.000
1.000
1.000
4.000
0.000
1.000
0.000
1.000
3.000
1.000
2.000
0.000
1.000
1.000
0.000
1.000
0.000
0.000
1.000
2.000
0.000
1.000
0.000
1.000
0.000
0.000
0.000
0.000
0.000
0.000
0.000
0.000
0.000
0.000
0.000
0.000
0.000
0.000
0.000
0.000
0.000
0.000
0.000
0.000
0.000
0.000
0.000
0.000
0.000
0.000
0.000
0.000
0.000
0.000
0.000
0.000
0.000
0.000
0.000
0.000
0.000
0.000
0.000
0.000
0.000
0.000
0.000
0.000
0.000
0.000
0.000
0.000
0.000
0.000
0.000
0.000
0.000
0.000
0.000
0.000
0.000
0.000
0.000
0.000
0.000
0.000
0.000
0.000
0.000
0.000
0.000
0.000
0.000
0.000
0.000
0.000
0.000
0.000
0.000
0.000
0.000
0.000
0.000
0.000
0.000
0.000
0.000
0.000
0.000
0.000
#ENDOFDATA   :