Folder: Semizbugu-microscopy/data/SEM-data_2024/artifact_surfaces/P5-1962_artifact_001_analysis_lw_region

Note: README.md
# Semizbugu-microscopy
Analysis of cross-sectioned artifacts from Semizbugu to study rock coatings

File: spectrum.emsa
#FORMAT      : EMSA/MAS Spectral Data File
#VERSION     : 1.0
#TITLE       : EDS Spectrum
#DATE        : 19-SEP-2024
#TIME        : 11:20
#OWNER       : Thermo Fisher Scientific Inc.
#NPOINTS     : 2048.
#NCOLUMNS    : 1.
#XUNITS      : eV
#YUNITS      : Counts
#DATATYPE    : Y
#XPERCHAN    : 9.933
#OFFSET      : -44.878
#XLABEL      : Energy
#YLABEL      : Counts
#SIGNALTYPE  : EDS
#BEAMKV      : 15.000
#AZIMANGLE-dg: 0.0
#ELEVANGLE-dg: 28.5
#LIVETIME    : 50.144
#REALTIME    : 60.392
#EDSDET      : SDUTW
##MNFWHM     : 126.3
##INSTRUMENT : MVE075582-10647-L
##SLOWTPEAK  : 0.000004000
##FASTTPEAK  : 0.000000100
##OPTICALWD  : 0.005500000
##WD         : 0.0113923
##SDDAREA    : 0.000025
##CCORR      : 260.454
##SCORR      : LIN
#SPECTRUM    : Spectral Data Starts Here
0.000
0.000
96.000
58.000
351.000
523.000
241.000
551.000
10491.000
313.000
169.000
266.000
130.000
129.000
137.000
331.000
354.000
120.000
360.000
383.000
139.000
367.000
1756.000
274.000
191.000
3496.000
4258.000
422.000
108.000
85.000
80.000
68.000
77.000
74.000
75.000
79.000
73.000
57.000
71.000
75.000
54.000
68.000
67.000
52.000
58.000
56.000
48.000
91.000
237.000
134.000
48.000
34.000
65.000
93.000
127.000
53.000
28.000
35.000
39.000
48.000
28.000
31.000
24.000
37.000
33.000
40.000
40.000
30.000
32.000
26.000
26.000
32.000
27.000
26.000
30.000
17.000
20.000
30.000
20.000
19.000
18.000
21.000
20.000
19.000
22.000
22.000
27.000
15.000
12.000
11.000
13.000
25.000
87.000
120.000
41.000
12.000
16.000
14.000
12.000
17.000
14.000
18.000
36.000
20.000
15.000
13.000
10.000
9.000
13.000
6.000
9.000
7.000
6.000
9.000
10.000
5.000
12.000
8.000
12.000
10.000
7.000
12.000
10.000
7.000
6.000
9.000
3.000
12.000
6.000
6.000
7.000
11.000
8.000
9.000
5.000
3.000
3.000
6.000
4.000
8.000
6.000
4.000
3.000
8.000
8.000
5.000
5.000
6.000
8.000
4.000
9.000
3.000
2.000
3.000
2.000
4.000
2.000
6.000
3.000
6.000
7.000
5.000
4.000
3.000
3.000
5.000
2.000
1.000
2.000
1.000
2.000
2.000
3.000
1.000
2.000
1.000
2.000
2.000
0.000
1.000
1.000
1.000
0.000
2.000
5.000
1.000
0.000
2.000
1.000
1.000
4.000
2.000
0.000
0.000
0.000
0.000
1.000
0.000
1.000
0.000
1.000
0.000
2.000
1.000
1.000
1.000
1.000
1.000
1.000
1.000
0.000
0.000
0.000
0.000
1.000
0.000
0.000
0.000
0.000
0.000
0.000
0.000
0.000
0.000
0.000
0.000
0.000
0.000
0.000
0.000
0.000
0.000
0.000
0.000
0.000
0.000
0.000
0.000
0.000
0.000
0.000
0.000
0.000
0.000
0.000
0.000
0.000
0.000
0.000
0.000
0.000
0.000
0.000
0.000
0.000
0.000
0.000
0.000
0.000
0.000
0.000
0.000
0.000
0.000
0.000
0.000
0.000
0.000
0.000
0.000
0.000
0.000
0.000
0.000
0.000
0.000
0.000
0.000
0.000
0.000
0.000
0.000
0.000
0.000
0.000
0.000
0.000
0.000
0.000
0.000
0.000
0.000
0.000
0.000
#ENDOFDATA   :