Folder: Semizbugu-microscopy/data/SEM-data_2024/artifact_surfaces/P5-1843_artifact_002_analysis_lw_region

Note: README.md
# Semizbugu-microscopy
Analysis of cross-sectioned artifacts from Semizbugu to study rock coatings

File: spectrum.emsa
#FORMAT      : EMSA/MAS Spectral Data File
#VERSION     : 1.0
#TITLE       : EDS Spectrum
#DATE        : 19-SEP-2024
#TIME        : 11:20
#OWNER       : Thermo Fisher Scientific Inc.
#NPOINTS     : 2048.
#NCOLUMNS    : 1.
#XUNITS      : eV
#YUNITS      : Counts
#DATATYPE    : Y
#XPERCHAN    : 9.933
#OFFSET      : -44.878
#XLABEL      : Energy
#YLABEL      : Counts
#SIGNALTYPE  : EDS
#BEAMKV      : 15.000
#AZIMANGLE-dg: 0.0
#ELEVANGLE-dg: 28.5
#LIVETIME    : 40.805
#REALTIME    : 49.761
#EDSDET      : SDUTW
##MNFWHM     : 126.3
##INSTRUMENT : MVE075582-10647-L
##SLOWTPEAK  : 0.000004000
##FASTTPEAK  : 0.000000100
##OPTICALWD  : 0.005500000
##WD         : 0.0104517
##SDDAREA    : 0.000025
##CCORR      : 260.454
##SCORR      : LIN
#SPECTRUM    : Spectral Data Starts Here
0.000
0.000
92.000
55.000
329.000
450.000
264.000
613.000
11202.000
309.000
181.000
269.000
104.000
117.000
146.000
459.000
410.000
149.000
279.000
300.000
141.000
351.000
1890.000
278.000
184.000
3395.000
4300.000
388.000
94.000
95.000
71.000
63.000
73.000
53.000
82.000
69.000
51.000
55.000
71.000
64.000
51.000
59.000
48.000
58.000
54.000
36.000
42.000
64.000
181.000
118.000
46.000
47.000
69.000
68.000
75.000
42.000
34.000
28.000
31.000
42.000
23.000
33.000
20.000
36.000
29.000
43.000
43.000
24.000
31.000
25.000
21.000
34.000
24.000
24.000
22.000
24.000
23.000
24.000
27.000
23.000
26.000
27.000
26.000
10.000
14.000
19.000
20.000
22.000
15.000
19.000
14.000
30.000
63.000
98.000
35.000
16.000
14.000
11.000
11.000
14.000
17.000
16.000
24.000
16.000
8.000
8.000
10.000
10.000
14.000
17.000
5.000
16.000
9.000
4.000
11.000
7.000
14.000
8.000
11.000
8.000
6.000
12.000
8.000
11.000
10.000
3.000
8.000
11.000
7.000
6.000
7.000
9.000
5.000
7.000
8.000
9.000
4.000
5.000
8.000
4.000
4.000
5.000
8.000
3.000
2.000
4.000
4.000
4.000
7.000
5.000
4.000
5.000
3.000
2.000
1.000
4.000
3.000
1.000
6.000
0.000
2.000
1.000
4.000
2.000
1.000
4.000
2.000
4.000
1.000
2.000
3.000
4.000
1.000
2.000
1.000
3.000
0.000
1.000
3.000
0.000
1.000
2.000
1.000
2.000
2.000
4.000
5.000
1.000
1.000
0.000
1.000
0.000
1.000
0.000
0.000
0.000
0.000
0.000
0.000
0.000
0.000
0.000
0.000
0.000
0.000
0.000
0.000
0.000
1.000
0.000
0.000
0.000
0.000
0.000
0.000
0.000
0.000
0.000
0.000
0.000
0.000
0.000
0.000
0.000
0.000
0.000
0.000
0.000
0.000
0.000
0.000
0.000
0.000
0.000
0.000
0.000
0.000
0.000
0.000
0.000
0.000
0.000
0.000
0.000
0.000
0.000
0.000
0.000
0.000
0.000
0.000
0.000
0.000
0.000
0.000
0.000
0.000
0.000
0.000
0.000
0.000
0.000
0.000
0.000
0.000
0.000
0.000
0.000
0.000
0.000
0.000
0.000
0.000
0.000
0.000
0.000
0.000
0.000
0.000
0.000
0.000
0.000
0.000
0.000
0.000
0.000
0.000
0.000
0.000
0.000
0.000
0.000
0.000
0.000
#ENDOFDATA   :