Folder: Semizbugu-microscopy/data/SEM-data_2024/artifact_surfaces/P5-1566_artifact_002_analysis_lw_region

Note: README.md
# Semizbugu-microscopy
Analysis of cross-sectioned artifacts from Semizbugu to study rock coatings

File: spectrum.emsa
#FORMAT      : EMSA/MAS Spectral Data File
#VERSION     : 1.0
#TITLE       : EDS Spectrum
#DATE        : 19-SEP-2024
#TIME        : 11:20
#OWNER       : Thermo Fisher Scientific Inc.
#NPOINTS     : 2048.
#NCOLUMNS    : 1.
#XUNITS      : eV
#YUNITS      : Counts
#DATATYPE    : Y
#XPERCHAN    : 9.933
#OFFSET      : -44.878
#XLABEL      : Energy
#YLABEL      : Counts
#SIGNALTYPE  : EDS
#BEAMKV      : 15.000
#AZIMANGLE-dg: 0.0
#ELEVANGLE-dg: 28.5
#LIVETIME    : 206.788
#REALTIME    : 244.160
#EDSDET      : SDUTW
##MNFWHM     : 126.3
##INSTRUMENT : MVE075582-10647-L
##SLOWTPEAK  : 0.000004000
##FASTTPEAK  : 0.000000100
##OPTICALWD  : 0.005500000
##WD         : 0.0141185
##SDDAREA    : 0.000025
##CCORR      : 260.454
##SCORR      : LIN
#SPECTRUM    : Spectral Data Starts Here
0.000
0.000
163.000
55.000
184.000
275.000
207.000
555.000
10517.000
271.000
132.000
189.000
110.000
118.000
133.000
464.000
437.000
126.000
174.000
197.000
132.000
390.000
2004.000
259.000
191.000
3772.000
4961.000
427.000
88.000
77.000
58.000
67.000
73.000
72.000
62.000
60.000
52.000
54.000
75.000
59.000
32.000
54.000
60.000
42.000
44.000
58.000
58.000
74.000
219.000
131.000
46.000
42.000
45.000
75.000
100.000
44.000
33.000
36.000
41.000
32.000
29.000
34.000
27.000
34.000
26.000
54.000
41.000
29.000
30.000
18.000
30.000
26.000
29.000
28.000
28.000
21.000
30.000
36.000
19.000
20.000
23.000
10.000
20.000
11.000
17.000
25.000
22.000
18.000
16.000
11.000
17.000
25.000
48.000
71.000
28.000
25.000
8.000
15.000
19.000
15.000
12.000
15.000
19.000
18.000
15.000
12.000
14.000
16.000
11.000
6.000
10.000
13.000
19.000
4.000
10.000
8.000
13.000
15.000
13.000
12.000
5.000
7.000
8.000
9.000
12.000
10.000
12.000
5.000
10.000
9.000
8.000
9.000
14.000
6.000
5.000
10.000
6.000
10.000
3.000
10.000
5.000
8.000
8.000
7.000
7.000
8.000
10.000
5.000
9.000
2.000
6.000
5.000
4.000
5.000
2.000
5.000
5.000
4.000
3.000
3.000
2.000
2.000
2.000
0.000
5.000
1.000
5.000
3.000
2.000
3.000
5.000
4.000
0.000
1.000
3.000
0.000
2.000
7.000
0.000
0.000
4.000
0.000
2.000
2.000
1.000
0.000
0.000
0.000
1.000
2.000
1.000
2.000
2.000
2.000
2.000
0.000
0.000
0.000
0.000
0.000
0.000
1.000
0.000
0.000
0.000
0.000
0.000
0.000
0.000
0.000
0.000
0.000
0.000
0.000
0.000
0.000
0.000
0.000
0.000
0.000
0.000
0.000
0.000
0.000
0.000
0.000
0.000
0.000
0.000
0.000
0.000
0.000
0.000
0.000
0.000
0.000
0.000
0.000
0.000
0.000
0.000
0.000
0.000
0.000
0.000
0.000
0.000
0.000
0.000
0.000
0.000
0.000
0.000
0.000
0.000
0.000
0.000
0.000
0.000
0.000
0.000
0.000
0.000
0.000
0.000
0.000
0.000
0.000
0.000
0.000
0.000
0.000
0.000
0.000
0.000
0.000
0.000
0.000
0.000
0.000
0.000
0.000
0.000
0.000
0.000
0.000
0.000
0.000
0.000
0.000
0.000
0.000
0.000
0.000
#ENDOFDATA   :