Folder: Semizbugu-microscopy/data/SEM-data_2024/artifact_surfaces/P5-1843_artifact_002_analysis_mw_region

Note: README.md
# Semizbugu-microscopy
Analysis of cross-sectioned artifacts from Semizbugu to study rock coatings

File: spectrum.emsa
#FORMAT      : EMSA/MAS Spectral Data File
#VERSION     : 1.0
#TITLE       : EDS Spectrum
#DATE        : 19-SEP-2024
#TIME        : 11:20
#OWNER       : Thermo Fisher Scientific Inc.
#NPOINTS     : 2048.
#NCOLUMNS    : 1.
#XUNITS      : eV
#YUNITS      : Counts
#DATATYPE    : Y
#XPERCHAN    : 9.933
#OFFSET      : -44.878
#XLABEL      : Energy
#YLABEL      : Counts
#SIGNALTYPE  : EDS
#BEAMKV      : 15.000
#AZIMANGLE-dg: 0.0
#ELEVANGLE-dg: 28.5
#LIVETIME    : 35.879
#REALTIME    : 44.160
#EDSDET      : SDUTW
##MNFWHM     : 126.3
##INSTRUMENT : MVE075582-10647-L
##SLOWTPEAK  : 0.000004000
##FASTTPEAK  : 0.000000100
##OPTICALWD  : 0.005500000
##WD         : 0.0104517
##SDDAREA    : 0.000025
##CCORR      : 260.454
##SCORR      : LIN
#SPECTRUM    : Spectral Data Starts Here
0.000
0.000
88.000
52.000
286.000
387.000
223.000
545.000
10188.000
292.000
183.000
282.000
102.000
128.000
151.000
445.000
389.000
134.000
259.000
286.000
149.000
386.000
1857.000
243.000
195.000
3704.000
4651.000
425.000
102.000
86.000
88.000
76.000
52.000
74.000
85.000
58.000
61.000
59.000
97.000
70.000
56.000
54.000
62.000
54.000
61.000
52.000
60.000
84.000
182.000
134.000
39.000
43.000
70.000
81.000
83.000
52.000
36.000
41.000
34.000
34.000
42.000
36.000
44.000
34.000
23.000
49.000
44.000
31.000
25.000
30.000
31.000
32.000
33.000
15.000
23.000
15.000
26.000
25.000
23.000
21.000
23.000
21.000
17.000
22.000
20.000
26.000
22.000
19.000
22.000
27.000
23.000
27.000
98.000
106.000
38.000
18.000
21.000
16.000
22.000
13.000
13.000
20.000
24.000
23.000
5.000
8.000
11.000
16.000
20.000
6.000
12.000
15.000
10.000
15.000
15.000
8.000
9.000
11.000
10.000
8.000
5.000
14.000
8.000
10.000
9.000
6.000
6.000
12.000
9.000
11.000
5.000
6.000
6.000
4.000
6.000
7.000
5.000
12.000
8.000
8.000
7.000
13.000
9.000
4.000
5.000
5.000
4.000
4.000
6.000
8.000
4.000
9.000
4.000
6.000
3.000
6.000
4.000
3.000
2.000
1.000
3.000
5.000
4.000
2.000
3.000
3.000
2.000
2.000
1.000
2.000
3.000
3.000
5.000
2.000
3.000
1.000
2.000
2.000
1.000
4.000
0.000
2.000
0.000
1.000
0.000
0.000
2.000
3.000
2.000
0.000
0.000
0.000
2.000
1.000
1.000
0.000
0.000
0.000
1.000
0.000
1.000
0.000
3.000
0.000
0.000
0.000
0.000
0.000
0.000
0.000
0.000
0.000
0.000
0.000
0.000
0.000
0.000
0.000
0.000
0.000
0.000
0.000
0.000
0.000
0.000
0.000
0.000
0.000
0.000
0.000
0.000
0.000
0.000
0.000
0.000
0.000
0.000
0.000
0.000
0.000
0.000
0.000
0.000
0.000
0.000
0.000
0.000
0.000
0.000
0.000
0.000
0.000
0.000
0.000
0.000
0.000
0.000
0.000
0.000
0.000
0.000
0.000
0.000
0.000
0.000
0.000
0.000
0.000
0.000
0.000
0.000
0.000
0.000
0.000
0.000
0.000
0.000
0.000
0.000
0.000
0.000
0.000
0.000
0.000
0.000
0.000
0.000
0.000
0.000
0.000
0.000
0.000
0.000
0.000
#ENDOFDATA   :