Folder: Semizbugu-microscopy/data/SEM-data_2024/artifact_surfaces/P5-1777_artifact_002_analysis_mw_region

Note: README.md
# Semizbugu-microscopy
Analysis of cross-sectioned artifacts from Semizbugu to study rock coatings

File: spectrum.emsa
#FORMAT      : EMSA/MAS Spectral Data File
#VERSION     : 1.0
#TITLE       : EDS Spectrum
#DATE        : 19-SEP-2024
#TIME        : 11:20
#OWNER       : Thermo Fisher Scientific Inc.
#NPOINTS     : 2048.
#NCOLUMNS    : 1.
#XUNITS      : eV
#YUNITS      : Counts
#DATATYPE    : Y
#XPERCHAN    : 9.933
#OFFSET      : -44.878
#XLABEL      : Energy
#YLABEL      : Counts
#SIGNALTYPE  : EDS
#BEAMKV      : 15.000
#AZIMANGLE-dg: 0.0
#ELEVANGLE-dg: 28.5
#LIVETIME    : 29.770
#REALTIME    : 37.560
#EDSDET      : SDUTW
##MNFWHM     : 126.3
##INSTRUMENT : MVE075582-10647-L
##SLOWTPEAK  : 0.000004000
##FASTTPEAK  : 0.000000100
##OPTICALWD  : 0.005500000
##WD         : 0.0100318
##SDDAREA    : 0.000025
##CCORR      : 260.454
##SCORR      : LIN
#SPECTRUM    : Spectral Data Starts Here
0.000
0.000
73.000
53.000
158.000
226.000
209.000
591.000
10687.000
306.000
252.000
417.000
105.000
121.000
131.000
480.000
378.000
148.000
157.000
207.000
130.000
338.000
1575.000
236.000
175.000
3525.000
4434.000
371.000
98.000
108.000
117.000
66.000
60.000
84.000
101.000
73.000
71.000
62.000
98.000
74.000
64.000
51.000
53.000
48.000
55.000
54.000
43.000
72.000
172.000
113.000
45.000
67.000
55.000
68.000
63.000
48.000
36.000
39.000
39.000
39.000
40.000
40.000
33.000
39.000
37.000
50.000
40.000
27.000
36.000
30.000
33.000
30.000
38.000
32.000
33.000
30.000
24.000
33.000
25.000
33.000
21.000
30.000
25.000
18.000
29.000
25.000
26.000
29.000
14.000
26.000
23.000
45.000
211.000
214.000
66.000
27.000
19.000
13.000
15.000
10.000
22.000
30.000
51.000
23.000
21.000
11.000
12.000
18.000
8.000
14.000
13.000
16.000
17.000
12.000
11.000
11.000
13.000
11.000
12.000
19.000
9.000
6.000
4.000
19.000
5.000
12.000
15.000
12.000
11.000
7.000
9.000
8.000
13.000
3.000
4.000
18.000
10.000
2.000
10.000
6.000
7.000
6.000
10.000
5.000
8.000
4.000
6.000
3.000
3.000
3.000
5.000
2.000
6.000
11.000
8.000
7.000
6.000
4.000
6.000
2.000
3.000
4.000
5.000
1.000
3.000
3.000
5.000
2.000
2.000
5.000
3.000
1.000
0.000
6.000
6.000
2.000
2.000
1.000
2.000
6.000
3.000
1.000
1.000
2.000
2.000
3.000
0.000
0.000
0.000
0.000
1.000
0.000
0.000
0.000
0.000
2.000
1.000
0.000
0.000
0.000
1.000
1.000
0.000
0.000
0.000
0.000
0.000
0.000
0.000
0.000
0.000
0.000
0.000
0.000
0.000
0.000
0.000
0.000
0.000
0.000
0.000
0.000
0.000
0.000
0.000
0.000
0.000
0.000
0.000
0.000
0.000
0.000
0.000
0.000
0.000
0.000
0.000
0.000
0.000
0.000
0.000
0.000
0.000
0.000
0.000
0.000
0.000
0.000
0.000
0.000
0.000
0.000
0.000
0.000
0.000
0.000
0.000
0.000
0.000
0.000
0.000
0.000
0.000
0.000
0.000
0.000
0.000
0.000
0.000
0.000
0.000
0.000
0.000
0.000
0.000
0.000
0.000
0.000
0.000
0.000
0.000
0.000
0.000
0.000
0.000
0.000
0.000
0.000
0.000
0.000
0.000
0.000
0.000
0.000
#ENDOFDATA   :