Folder: Semizbugu-microscopy/data/SEM-data_2024/artifact_surfaces/P5-1566_artifact_001_analysis_mw_region

Note: README.md
# Semizbugu-microscopy
Analysis of cross-sectioned artifacts from Semizbugu to study rock coatings

File: spectrum.emsa
#FORMAT      : EMSA/MAS Spectral Data File
#VERSION     : 1.0
#TITLE       : EDS Spectrum
#DATE        : 19-SEP-2024
#TIME        : 11:20
#OWNER       : Thermo Fisher Scientific Inc.
#NPOINTS     : 2048.
#NCOLUMNS    : 1.
#XUNITS      : eV
#YUNITS      : Counts
#DATATYPE    : Y
#XPERCHAN    : 9.933
#OFFSET      : -44.878
#XLABEL      : Energy
#YLABEL      : Counts
#SIGNALTYPE  : EDS
#BEAMKV      : 15.000
#AZIMANGLE-dg: 0.0
#ELEVANGLE-dg: 28.5
#LIVETIME    : 51.794
#REALTIME    : 62.561
#EDSDET      : SDUTW
##MNFWHM     : 126.3
##INSTRUMENT : MVE075582-10647-L
##SLOWTPEAK  : 0.000004000
##FASTTPEAK  : 0.000000100
##OPTICALWD  : 0.005500000
##WD         : 0.0112519
##SDDAREA    : 0.000025
##CCORR      : 260.454
##SCORR      : LIN
#SPECTRUM    : Spectral Data Starts Here
0.000
0.000
82.000
49.000
279.000
429.000
185.000
461.000
9264.000
273.000
202.000
300.000
132.000
112.000
117.000
382.000
372.000
116.000
192.000
182.000
132.000
355.000
1816.000
278.000
196.000
3804.000
4722.000
426.000
87.000
103.000
89.000
74.000
60.000
76.000
105.000
60.000
65.000
66.000
88.000
62.000
68.000
66.000
60.000
60.000
60.000
55.000
54.000
90.000
253.000
174.000
52.000
48.000
73.000
77.000
83.000
54.000
47.000
50.000
60.000
46.000
44.000
41.000
36.000
35.000
33.000
70.000
69.000
40.000
29.000
27.000
31.000
44.000
33.000
21.000
33.000
24.000
28.000
26.000
28.000
32.000
22.000
27.000
22.000
30.000
22.000
31.000
31.000
22.000
23.000
28.000
28.000
58.000
186.000
216.000
56.000
11.000
19.000
17.000
25.000
18.000
21.000
42.000
32.000
42.000
21.000
18.000
28.000
12.000
16.000
11.000
14.000
10.000
24.000
18.000
10.000
10.000
16.000
12.000
6.000
14.000
13.000
13.000
8.000
14.000
11.000
12.000
8.000
10.000
9.000
7.000
7.000
8.000
14.000
15.000
14.000
7.000
5.000
6.000
8.000
6.000
8.000
7.000
5.000
7.000
11.000
9.000
10.000
8.000
4.000
7.000
4.000
6.000
5.000
7.000
4.000
3.000
7.000
6.000
3.000
3.000
3.000
2.000
4.000
2.000
3.000
5.000
4.000
2.000
4.000
5.000
4.000
2.000
1.000
4.000
7.000
5.000
4.000
3.000
4.000
2.000
3.000
2.000
0.000
1.000
0.000
3.000
0.000
1.000
2.000
3.000
3.000
2.000
1.000
0.000
2.000
1.000
2.000
1.000
1.000
0.000
1.000
0.000
0.000
0.000
2.000
2.000
0.000
0.000
0.000
1.000
0.000
0.000
1.000
0.000
0.000
0.000
0.000
0.000
0.000
0.000
0.000
0.000
0.000
0.000
0.000
0.000
0.000
0.000
0.000
0.000
0.000
0.000
0.000
0.000
0.000
0.000
0.000
0.000
0.000
0.000
0.000
0.000
0.000
0.000
0.000
0.000
0.000
0.000
0.000
0.000
0.000
0.000
0.000
0.000
0.000
0.000
0.000
0.000
0.000
0.000
0.000
0.000
0.000
0.000
0.000
0.000
0.000
0.000
0.000
0.000
0.000
0.000
0.000
0.000
0.000
0.000
0.000
0.000
0.000
0.000
0.000
0.000
0.000
0.000
0.000
0.000
0.000
0.000
0.000
0.000
0.000
0.000
0.000
0.000
#ENDOFDATA   :