Folder: Semizbugu-microscopy/data/SEM-data_2024/artifact_surfaces/P5-1962_artifact_001_analysis_mw_region

Note: README.md
# Semizbugu-microscopy
Analysis of cross-sectioned artifacts from Semizbugu to study rock coatings

File: spectrum.emsa
#FORMAT      : EMSA/MAS Spectral Data File
#VERSION     : 1.0
#TITLE       : EDS Spectrum
#DATE        : 19-SEP-2024
#TIME        : 11:20
#OWNER       : Thermo Fisher Scientific Inc.
#NPOINTS     : 2048.
#NCOLUMNS    : 1.
#XUNITS      : eV
#YUNITS      : Counts
#DATATYPE    : Y
#XPERCHAN    : 9.933
#OFFSET      : -44.878
#XLABEL      : Energy
#YLABEL      : Counts
#SIGNALTYPE  : EDS
#BEAMKV      : 15.000
#AZIMANGLE-dg: 0.0
#ELEVANGLE-dg: 28.5
#LIVETIME    : 45.820
#REALTIME    : 55.961
#EDSDET      : SDUTW
##MNFWHM     : 126.3
##INSTRUMENT : MVE075582-10647-L
##SLOWTPEAK  : 0.000004000
##FASTTPEAK  : 0.000000100
##OPTICALWD  : 0.005500000
##WD         : 0.0113923
##SDDAREA    : 0.000025
##CCORR      : 260.454
##SCORR      : LIN
#SPECTRUM    : Spectral Data Starts Here
0.000
0.000
77.000
48.000
232.000
390.000
240.000
521.000
10082.000
309.000
230.000
382.000
104.000
101.000
124.000
282.000
275.000
122.000
277.000
321.000
147.000
327.000
1558.000
263.000
189.000
3604.000
4389.000
420.000
117.000
127.000
128.000
87.000
73.000
69.000
85.000
85.000
90.000
78.000
110.000
71.000
69.000
57.000
55.000
44.000
53.000
48.000
66.000
80.000
230.000
134.000
54.000
65.000
80.000
104.000
134.000
56.000
46.000
54.000
42.000
44.000
35.000
33.000
39.000
35.000
34.000
69.000
45.000
38.000
28.000
31.000
42.000
41.000
35.000
29.000
29.000
34.000
34.000
29.000
25.000
29.000
25.000
28.000
32.000
21.000
30.000
26.000
28.000
15.000
21.000
24.000
17.000
59.000
173.000
244.000
73.000
21.000
21.000
15.000
17.000
11.000
23.000
44.000
58.000
36.000
18.000
18.000
15.000
16.000
13.000
13.000
8.000
11.000
14.000
12.000
10.000
12.000
14.000
13.000
19.000
18.000
11.000
16.000
17.000
14.000
11.000
11.000
6.000
8.000
6.000
13.000
11.000
10.000
4.000
10.000
10.000
7.000
6.000
8.000
2.000
10.000
8.000
9.000
7.000
7.000
9.000
4.000
3.000
8.000
6.000
4.000
3.000
6.000
5.000
5.000
3.000
6.000
4.000
1.000
5.000
4.000
7.000
6.000
2.000
4.000
5.000
2.000
0.000
1.000
1.000
2.000
2.000
3.000
4.000
3.000
1.000
1.000
1.000
3.000
2.000
1.000
2.000
1.000
2.000
1.000
2.000
2.000
0.000
2.000
4.000
0.000
0.000
2.000
0.000
2.000
0.000
1.000
1.000
1.000
1.000
0.000
0.000
0.000
0.000
0.000
1.000
0.000
2.000
3.000
0.000
0.000
0.000
0.000
0.000
1.000
0.000
0.000
0.000
0.000
0.000
0.000
0.000
0.000
0.000
0.000
0.000
0.000
0.000
0.000
0.000
0.000
0.000
0.000
0.000
0.000
0.000
0.000
0.000
0.000
0.000
0.000
0.000
0.000
0.000
0.000
0.000
0.000
0.000
0.000
0.000
0.000
0.000
0.000
0.000
0.000
0.000
0.000
0.000
0.000
0.000
0.000
0.000
0.000
0.000
0.000
0.000
0.000
0.000
0.000
0.000
0.000
0.000
0.000
0.000
0.000
0.000
0.000
0.000
0.000
0.000
0.000
0.000
0.000
0.000
0.000
0.000
0.000
0.000
0.000
0.000
0.000
0.000
0.000
0.000
0.000
#ENDOFDATA   :