Folder: Semizbugu-microscopy/data/SEM-data_2024/artifact_surfaces/P5-1962_artifact_002_analysis_lw_region

Note: README.md
# Semizbugu-microscopy
Analysis of cross-sectioned artifacts from Semizbugu to study rock coatings

File: spectrum.emsa
#FORMAT      : EMSA/MAS Spectral Data File
#VERSION     : 1.0
#TITLE       : EDS Spectrum
#DATE        : 19-SEP-2024
#TIME        : 11:20
#OWNER       : Thermo Fisher Scientific Inc.
#NPOINTS     : 2048.
#NCOLUMNS    : 1.
#XUNITS      : eV
#YUNITS      : Counts
#DATATYPE    : Y
#XPERCHAN    : 9.933
#OFFSET      : -44.878
#XLABEL      : Energy
#YLABEL      : Counts
#SIGNALTYPE  : EDS
#BEAMKV      : 15.000
#AZIMANGLE-dg: 0.0
#ELEVANGLE-dg: 28.5
#LIVETIME    : 46.127
#REALTIME    : 55.593
#EDSDET      : SDUTW
##MNFWHM     : 126.3
##INSTRUMENT : MVE075582-10647-L
##SLOWTPEAK  : 0.000004000
##FASTTPEAK  : 0.000000100
##OPTICALWD  : 0.005500000
##WD         : 0.011119
##SDDAREA    : 0.000025
##CCORR      : 260.454
##SCORR      : LIN
#SPECTRUM    : Spectral Data Starts Here
0.000
0.000
94.000
67.000
331.000
526.000
264.000
576.000
10732.000
297.000
175.000
244.000
131.000
126.000
156.000
470.000
434.000
124.000
267.000
325.000
146.000
364.000
1648.000
273.000
169.000
3570.000
4479.000
373.000
96.000
84.000
91.000
66.000
68.000
71.000
68.000
56.000
52.000
52.000
73.000
55.000
58.000
47.000
47.000
42.000
57.000
45.000
47.000
61.000
198.000
138.000
41.000
36.000
60.000
94.000
94.000
30.000
33.000
43.000
33.000
39.000
38.000
33.000
34.000
24.000
33.000
33.000
29.000
28.000
33.000
37.000
28.000
27.000
27.000
25.000
13.000
25.000
18.000
16.000
20.000
18.000
14.000
25.000
23.000
11.000
29.000
33.000
14.000
22.000
14.000
11.000
19.000
31.000
58.000
60.000
34.000
18.000
11.000
11.000
17.000
14.000
17.000
25.000
16.000
14.000
12.000
18.000
8.000
14.000
10.000
17.000
11.000
7.000
11.000
11.000
9.000
9.000
16.000
6.000
8.000
12.000
10.000
5.000
6.000
9.000
7.000
4.000
10.000
5.000
5.000
5.000
4.000
6.000
2.000
4.000
4.000
7.000
5.000
13.000
5.000
5.000
7.000
7.000
3.000
7.000
4.000
4.000
2.000
5.000
5.000
6.000
4.000
7.000
6.000
5.000
7.000
7.000
4.000
5.000
2.000
5.000
0.000
2.000
1.000
4.000
2.000
2.000
1.000
2.000
2.000
3.000
2.000
3.000
2.000
3.000
3.000
0.000
1.000
4.000
1.000
1.000
3.000
0.000
1.000
1.000
1.000
0.000
1.000
2.000
4.000
2.000
1.000
0.000
0.000
1.000
1.000
0.000
0.000
1.000
0.000
0.000
0.000
0.000
0.000
0.000
1.000
0.000
0.000
0.000
1.000
0.000
0.000
0.000
0.000
0.000
0.000
0.000
0.000
0.000
0.000
0.000
0.000
0.000
0.000
0.000
0.000
0.000
0.000
0.000
0.000
0.000
0.000
0.000
0.000
0.000
0.000
0.000
0.000
0.000
0.000
0.000
0.000
0.000
0.000
0.000
0.000
0.000
0.000
0.000
0.000
0.000
0.000
0.000
0.000
0.000
0.000
0.000
0.000
0.000
0.000
0.000
0.000
0.000
0.000
0.000
0.000
0.000
0.000
0.000
0.000
0.000
0.000
0.000
0.000
0.000
0.000
0.000
0.000
0.000
0.000
0.000
0.000
0.000
0.000
0.000
0.000
0.000
0.000
0.000
0.000
0.000
0.000
0.000
0.000
0.000
#ENDOFDATA   :