Folder: Semizbugu-microscopy/data/SEM-data_2024/artifact_surfaces/P5-1843_artifact_001_analysis_lw_region

Note: README.md
# Semizbugu-microscopy
Analysis of cross-sectioned artifacts from Semizbugu to study rock coatings

File: spectrum.emsa
#FORMAT      : EMSA/MAS Spectral Data File
#VERSION     : 1.0
#TITLE       : EDS Spectrum
#DATE        : 19-SEP-2024
#TIME        : 11:20
#OWNER       : Thermo Fisher Scientific Inc.
#NPOINTS     : 2048.
#NCOLUMNS    : 1.
#XUNITS      : eV
#YUNITS      : Counts
#DATATYPE    : Y
#XPERCHAN    : 9.933
#OFFSET      : -44.878
#XLABEL      : Energy
#YLABEL      : Counts
#SIGNALTYPE  : EDS
#BEAMKV      : 15.000
#AZIMANGLE-dg: 0.0
#ELEVANGLE-dg: 28.5
#LIVETIME    : 38.495
#REALTIME    : 46.559
#EDSDET      : SDUTW
##MNFWHM     : 126.3
##INSTRUMENT : MVE075582-10647-L
##SLOWTPEAK  : 0.000004000
##FASTTPEAK  : 0.000000100
##OPTICALWD  : 0.005500000
##WD         : 0.009952556
##SDDAREA    : 0.000025
##CCORR      : 260.454
##SCORR      : LIN
#SPECTRUM    : Spectral Data Starts Here
0.000
0.000
112.000
68.000
414.000
533.000
337.000
612.000
11347.000
338.000
214.000
329.000
128.000
118.000
139.000
322.000
298.000
150.000
376.000
449.000
146.000
377.000
2036.000
242.000
175.000
2920.000
3698.000
337.000
91.000
92.000
86.000
61.000
56.000
70.000
74.000
70.000
63.000
57.000
100.000
70.000
44.000
55.000
46.000
50.000
46.000
52.000
51.000
77.000
297.000
142.000
40.000
67.000
63.000
76.000
97.000
37.000
30.000
43.000
37.000
36.000
32.000
36.000
19.000
24.000
30.000
39.000
43.000
22.000
23.000
31.000
21.000
20.000
27.000
24.000
22.000
22.000
24.000
22.000
11.000
19.000
24.000
25.000
17.000
17.000
18.000
20.000
26.000
18.000
19.000
24.000
16.000
41.000
114.000
108.000
36.000
10.000
17.000
12.000
20.000
14.000
10.000
33.000
28.000
29.000
12.000
18.000
11.000
13.000
12.000
8.000
11.000
9.000
9.000
6.000
11.000
5.000
8.000
6.000
15.000
14.000
5.000
6.000
8.000
7.000
11.000
13.000
5.000
5.000
4.000
8.000
8.000
2.000
8.000
6.000
6.000
6.000
7.000
3.000
6.000
5.000
8.000
7.000
8.000
3.000
3.000
7.000
4.000
4.000
5.000
3.000
6.000
7.000
0.000
2.000
1.000
3.000
4.000
5.000
5.000
2.000
8.000
2.000
5.000
1.000
3.000
2.000
2.000
4.000
2.000
0.000
2.000
1.000
4.000
3.000
2.000
1.000
0.000
1.000
3.000
4.000
1.000
1.000
2.000
1.000
6.000
2.000
3.000
2.000
1.000
0.000
0.000
0.000
2.000
1.000
0.000
1.000
1.000
1.000
1.000
0.000
1.000
1.000
0.000
1.000
0.000
0.000
0.000
0.000
0.000
0.000
0.000
0.000
0.000
1.000
0.000
0.000
0.000
0.000
0.000
0.000
0.000
0.000
0.000
0.000
0.000
0.000
0.000
0.000
0.000
0.000
0.000
0.000
0.000
0.000
0.000
0.000
0.000
0.000
0.000
0.000
0.000
0.000
0.000
0.000
0.000
0.000
0.000
0.000
0.000
0.000
0.000
0.000
0.000
0.000
0.000
0.000
0.000
0.000
0.000
0.000
0.000
0.000
0.000
0.000
0.000
0.000
0.000
0.000
0.000
0.000
0.000
0.000
0.000
0.000
0.000
0.000
0.000
0.000
0.000
0.000
0.000
0.000
0.000
0.000
0.000
0.000
0.000
0.000
0.000
0.000
0.000
0.000
0.000
0.000
#ENDOFDATA   :