Folder: Semizbugu-microscopy/data/SEM-data_2024/artifact_surfaces/P5-1777_artifact_002_analysis_lw_region

Note: README.md
# Semizbugu-microscopy
Analysis of cross-sectioned artifacts from Semizbugu to study rock coatings

File: spectrum.emsa
#FORMAT      : EMSA/MAS Spectral Data File
#VERSION     : 1.0
#TITLE       : EDS Spectrum
#DATE        : 19-SEP-2024
#TIME        : 11:20
#OWNER       : Thermo Fisher Scientific Inc.
#NPOINTS     : 2048.
#NCOLUMNS    : 1.
#XUNITS      : eV
#YUNITS      : Counts
#DATATYPE    : Y
#XPERCHAN    : 9.933
#OFFSET      : -44.878
#XLABEL      : Energy
#YLABEL      : Counts
#SIGNALTYPE  : EDS
#BEAMKV      : 15.000
#AZIMANGLE-dg: 0.0
#ELEVANGLE-dg: 28.5
#LIVETIME    : 30.624
#REALTIME    : 38.392
#EDSDET      : SDUTW
##MNFWHM     : 126.3
##INSTRUMENT : MVE075582-10647-L
##SLOWTPEAK  : 0.000004000
##FASTTPEAK  : 0.000000100
##OPTICALWD  : 0.005500000
##WD         : 0.0100318
##SDDAREA    : 0.000025
##CCORR      : 260.454
##SCORR      : LIN
#SPECTRUM    : Spectral Data Starts Here
0.000
0.000
124.000
58.000
209.000
290.000
211.000
583.000
11317.000
294.000
127.000
193.000
117.000
109.000
120.000
716.000
608.000
120.000
195.000
189.000
137.000
353.000
1823.000
255.000
165.000
3735.000
4658.000
387.000
98.000
66.000
79.000
54.000
64.000
67.000
61.000
52.000
46.000
59.000
43.000
60.000
42.000
58.000
35.000
38.000
28.000
41.000
32.000
57.000
96.000
73.000
30.000
44.000
47.000
45.000
54.000
33.000
27.000
38.000
33.000
37.000
29.000
32.000
38.000
35.000
29.000
45.000
38.000
25.000
24.000
19.000
26.000
23.000
36.000
25.000
27.000
21.000
24.000
19.000
22.000
19.000
25.000
16.000
18.000
15.000
23.000
18.000
21.000
12.000
21.000
20.000
13.000
25.000
34.000
51.000
24.000
13.000
8.000
10.000
19.000
10.000
17.000
24.000
18.000
19.000
9.000
11.000
9.000
10.000
6.000
6.000
11.000
10.000
13.000
7.000
14.000
2.000
6.000
5.000
9.000
6.000
8.000
10.000
9.000
13.000
9.000
5.000
13.000
12.000
7.000
7.000
6.000
8.000
5.000
7.000
5.000
4.000
4.000
5.000
8.000
4.000
8.000
3.000
13.000
6.000
3.000
1.000
2.000
3.000
5.000
2.000
6.000
2.000
4.000
4.000
5.000
5.000
6.000
3.000
5.000
3.000
3.000
2.000
2.000
1.000
4.000
5.000
4.000
1.000
1.000
3.000
1.000
4.000
1.000
0.000
3.000
1.000
0.000
2.000
0.000
1.000
5.000
3.000
1.000
1.000
1.000
0.000
0.000
1.000
0.000
0.000
1.000
3.000
2.000
0.000
3.000
2.000
1.000
1.000
1.000
1.000
0.000
0.000
0.000
0.000
0.000
0.000
0.000
0.000
0.000
0.000
0.000
0.000
0.000
0.000
0.000
0.000
0.000
0.000
0.000
0.000
0.000
0.000
0.000
0.000
0.000
0.000
0.000
0.000
0.000
0.000
0.000
0.000
0.000
0.000
0.000
0.000
0.000
0.000
0.000
0.000
0.000
0.000
0.000
0.000
0.000
0.000
0.000
0.000
0.000
0.000
0.000
0.000
0.000
0.000
0.000
0.000
0.000
0.000
0.000
0.000
0.000
0.000
0.000
0.000
0.000
0.000
0.000
0.000
0.000
0.000
0.000
0.000
0.000
0.000
0.000
0.000
0.000
0.000
0.000
0.000
0.000
0.000
0.000
0.000
0.000
0.000
0.000
0.000
0.000
0.000
0.000
0.000
0.000
0.000
#ENDOFDATA   :