Folder: Semizbugu-microscopy/data/SEM-data_2024/artifact_surfaces/P5-1566_artifact_002_analysis_mw_region

Note: README.md
# Semizbugu-microscopy
Analysis of cross-sectioned artifacts from Semizbugu to study rock coatings

File: spectrum.emsa
#FORMAT      : EMSA/MAS Spectral Data File
#VERSION     : 1.0
#TITLE       : EDS Spectrum
#DATE        : 19-SEP-2024
#TIME        : 11:20
#OWNER       : Thermo Fisher Scientific Inc.
#NPOINTS     : 2048.
#NCOLUMNS    : 1.
#XUNITS      : eV
#YUNITS      : Counts
#DATATYPE    : Y
#XPERCHAN    : 9.933
#OFFSET      : -44.878
#XLABEL      : Energy
#YLABEL      : Counts
#SIGNALTYPE  : EDS
#BEAMKV      : 15.000
#AZIMANGLE-dg: 0.0
#ELEVANGLE-dg: 28.5
#LIVETIME    : 148.611
#REALTIME    : 174.961
#EDSDET      : SDUTW
##MNFWHM     : 126.3
##INSTRUMENT : MVE075582-10647-L
##SLOWTPEAK  : 0.000004000
##FASTTPEAK  : 0.000000100
##OPTICALWD  : 0.005500000
##WD         : 0.0141185
##SDDAREA    : 0.000025
##CCORR      : 260.454
##SCORR      : LIN
#SPECTRUM    : Spectral Data Starts Here
0.000
0.000
106.000
53.000
274.000
387.000
219.000
481.000
9387.000
283.000
198.000
333.000
114.000
93.000
110.000
430.000
422.000
121.000
179.000
214.000
161.000
341.000
1879.000
263.000
205.000
3806.000
4692.000
386.000
118.000
120.000
112.000
71.000
69.000
87.000
95.000
75.000
79.000
77.000
91.000
77.000
53.000
59.000
56.000
66.000
71.000
54.000
46.000
88.000
232.000
151.000
65.000
65.000
74.000
101.000
106.000
55.000
45.000
44.000
44.000
46.000
54.000
35.000
45.000
34.000
29.000
74.000
65.000
33.000
35.000
34.000
25.000
41.000
32.000
34.000
32.000
39.000
26.000
32.000
31.000
29.000
34.000
36.000
30.000
23.000
22.000
27.000
18.000
25.000
24.000
10.000
24.000
49.000
175.000
194.000
65.000
29.000
14.000
20.000
14.000
20.000
16.000
35.000
27.000
21.000
21.000
18.000
12.000
18.000
10.000
12.000
10.000
13.000
12.000
8.000
13.000
18.000
11.000
19.000
16.000
13.000
11.000
8.000
9.000
10.000
11.000
8.000
13.000
14.000
8.000
8.000
13.000
10.000
15.000
11.000
7.000
6.000
9.000
14.000
8.000
14.000
10.000
4.000
9.000
6.000
6.000
4.000
3.000
7.000
7.000
4.000
7.000
7.000
6.000
4.000
4.000
4.000
6.000
10.000
3.000
5.000
3.000
5.000
3.000
4.000
4.000
6.000
2.000
2.000
2.000
3.000
0.000
3.000
2.000
1.000
4.000
0.000
3.000
2.000
1.000
1.000
2.000
1.000
3.000
4.000
3.000
2.000
1.000
1.000
2.000
1.000
1.000
2.000
0.000
3.000
1.000
0.000
1.000
2.000
0.000
1.000
1.000
1.000
1.000
0.000
0.000
0.000
0.000
1.000
0.000
1.000
0.000
0.000
1.000
0.000
0.000
0.000
0.000
0.000
0.000
0.000
0.000
0.000
0.000
0.000
0.000
0.000
0.000
0.000
0.000
0.000
0.000
0.000
0.000
0.000
0.000
0.000
0.000
0.000
0.000
0.000
0.000
0.000
0.000
0.000
0.000
0.000
0.000
0.000
0.000
0.000
0.000
0.000
0.000
0.000
0.000
0.000
0.000
0.000
0.000
0.000
0.000
0.000
0.000
0.000
0.000
0.000
0.000
0.000
0.000
0.000
0.000
0.000
0.000
0.000
0.000
0.000
0.000
0.000
0.000
0.000
0.000
0.000
0.000
0.000
0.000
0.000
0.000
0.000
0.000
0.000
0.000
0.000
0.000
0.000
#ENDOFDATA   :