Folder: Semizbugu-microscopy/data/SEM-data_2024/artifact_surfaces/P5-1962_artifact_002_analysis_mw_region

Note: README.md
# Semizbugu-microscopy
Analysis of cross-sectioned artifacts from Semizbugu to study rock coatings

File: spectrum.emsa
#FORMAT      : EMSA/MAS Spectral Data File
#VERSION     : 1.0
#TITLE       : EDS Spectrum
#DATE        : 19-SEP-2024
#TIME        : 11:20
#OWNER       : Thermo Fisher Scientific Inc.
#NPOINTS     : 2048.
#NCOLUMNS    : 1.
#XUNITS      : eV
#YUNITS      : Counts
#DATATYPE    : Y
#XPERCHAN    : 9.933
#OFFSET      : -44.878
#XLABEL      : Energy
#YLABEL      : Counts
#SIGNALTYPE  : EDS
#BEAMKV      : 15.000
#AZIMANGLE-dg: 0.0
#ELEVANGLE-dg: 28.5
#LIVETIME    : 41.621
#REALTIME    : 51.361
#EDSDET      : SDUTW
##MNFWHM     : 126.3
##INSTRUMENT : MVE075582-10647-L
##SLOWTPEAK  : 0.000004000
##FASTTPEAK  : 0.000000100
##OPTICALWD  : 0.005500000
##WD         : 0.011119
##SDDAREA    : 0.000025
##CCORR      : 260.454
##SCORR      : LIN
#SPECTRUM    : Spectral Data Starts Here
0.000
0.000
74.000
44.000
183.000
274.000
178.000
466.000
9835.000
268.000
152.000
261.000
94.000
111.000
130.000
421.000
380.000
112.000
187.000
239.000
134.000
346.000
1551.000
245.000
216.000
4128.000
5180.000
474.000
110.000
112.000
103.000
73.000
63.000
70.000
70.000
72.000
56.000
54.000
67.000
79.000
61.000
66.000
44.000
58.000
43.000
55.000
56.000
68.000
186.000
114.000
43.000
50.000
63.000
86.000
103.000
46.000
34.000
30.000
44.000
28.000
33.000
38.000
35.000
30.000
47.000
37.000
50.000
36.000
40.000
26.000
36.000
34.000
38.000
35.000
26.000
38.000
30.000
30.000
30.000
25.000
16.000
20.000
27.000
16.000
37.000
17.000
28.000
26.000
21.000
31.000
20.000
41.000
139.000
157.000
53.000
16.000
18.000
19.000
20.000
20.000
17.000
24.000
21.000
29.000
15.000
13.000
12.000
11.000
15.000
5.000
13.000
14.000
15.000
9.000
13.000
12.000
13.000
6.000
15.000
11.000
10.000
8.000
11.000
8.000
16.000
11.000
3.000
4.000
13.000
8.000
8.000
12.000
3.000
10.000
7.000
7.000
8.000
8.000
12.000
8.000
4.000
8.000
7.000
12.000
10.000
5.000
3.000
3.000
3.000
7.000
5.000
10.000
2.000
3.000
2.000
7.000
7.000
9.000
1.000
2.000
3.000
1.000
3.000
3.000
3.000
1.000
4.000
8.000
4.000
1.000
3.000
4.000
5.000
3.000
1.000
1.000
5.000
4.000
4.000
3.000
2.000
2.000
1.000
1.000
2.000
2.000
0.000
3.000
3.000
0.000
0.000
1.000
3.000
0.000
0.000
0.000
0.000
2.000
1.000
0.000
0.000
0.000
2.000
3.000
2.000
0.000
1.000
1.000
0.000
0.000
0.000
0.000
0.000
0.000
0.000
0.000
0.000
0.000
0.000
0.000
0.000
0.000
0.000
0.000
0.000
0.000
0.000
0.000
0.000
0.000
0.000
0.000
0.000
0.000
0.000
0.000
0.000
0.000
0.000
0.000
0.000
0.000
0.000
0.000
0.000
0.000
0.000
0.000
0.000
0.000
0.000
0.000
0.000
0.000
0.000
0.000
0.000
0.000
0.000
0.000
0.000
0.000
0.000
0.000
0.000
0.000
0.000
0.000
0.000
0.000
0.000
0.000
0.000
0.000
0.000
0.000
0.000
0.000
0.000
0.000
0.000
0.000
0.000
0.000
0.000
0.000
0.000
0.000
0.000
0.000
0.000
0.000
0.000
0.000
#ENDOFDATA   :