Folder: Semizbugu-microscopy/data/SEM-data_2024/artifact_surfaces/Sem-survey_artifact_001_analysis_lw_region

Note: README.md
# Semizbugu-microscopy
Analysis of cross-sectioned artifacts from Semizbugu to study rock coatings

File: spectrum.emsa
#FORMAT      : EMSA/MAS Spectral Data File
#VERSION     : 1.0
#TITLE       : EDS Spectrum
#DATE        : 19-SEP-2024
#TIME        : 11:20
#OWNER       : Thermo Fisher Scientific Inc.
#NPOINTS     : 2048.
#NCOLUMNS    : 1.
#XUNITS      : eV
#YUNITS      : Counts
#DATATYPE    : Y
#XPERCHAN    : 9.933
#OFFSET      : -44.878
#XLABEL      : Energy
#YLABEL      : Counts
#SIGNALTYPE  : EDS
#BEAMKV      : 15.000
#AZIMANGLE-dg: 0.0
#ELEVANGLE-dg: 28.5
#LIVETIME    : 152.165
#REALTIME    : 178.991
#EDSDET      : SDUTW
##MNFWHM     : 126.3
##INSTRUMENT : MVE075582-10647-L
##SLOWTPEAK  : 0.000004000
##FASTTPEAK  : 0.000000100
##OPTICALWD  : 0.005500000
##WD         : 0.0141758
##SDDAREA    : 0.000025
##CCORR      : 260.454
##SCORR      : LIN
#SPECTRUM    : Spectral Data Starts Here
0.000
0.000
103.000
48.000
248.000
383.000
244.000
430.000
9422.000
261.000
170.000
237.000
101.000
96.000
124.000
456.000
459.000
123.000
239.000
278.000
144.000
379.000
1927.000
254.000
180.000
3569.000
4750.000
381.000
92.000
83.000
113.000
63.000
66.000
85.000
84.000
73.000
65.000
67.000
74.000
77.000
49.000
49.000
58.000
52.000
49.000
49.000
57.000
99.000
259.000
136.000
50.000
43.000
71.000
105.000
94.000
47.000
38.000
43.000
46.000
37.000
37.000
41.000
34.000
31.000
35.000
54.000
48.000
34.000
26.000
30.000
31.000
36.000
40.000
26.000
29.000
32.000
29.000
21.000
31.000
22.000
23.000
25.000
34.000
18.000
21.000
35.000
34.000
13.000
27.000
23.000
20.000
39.000
132.000
142.000
51.000
14.000
20.000
19.000
19.000
12.000
17.000
15.000
41.000
30.000
8.000
17.000
11.000
13.000
11.000
11.000
20.000
10.000
14.000
13.000
12.000
10.000
20.000
7.000
13.000
7.000
11.000
8.000
8.000
10.000
9.000
13.000
12.000
12.000
9.000
8.000
8.000
10.000
12.000
5.000
7.000
6.000
8.000
8.000
9.000
7.000
8.000
8.000
6.000
8.000
6.000
9.000
6.000
4.000
5.000
2.000
7.000
2.000
9.000
8.000
7.000
14.000
5.000
5.000
0.000
6.000
3.000
2.000
1.000
0.000
7.000
3.000
6.000
3.000
3.000
4.000
1.000
2.000
4.000
5.000
3.000
2.000
3.000
3.000
3.000
2.000
4.000
2.000
3.000
1.000
1.000
1.000
2.000
0.000
2.000
0.000
2.000
0.000
1.000
2.000
0.000
1.000
1.000
1.000
1.000
1.000
0.000
1.000
1.000
1.000
0.000
0.000
0.000
0.000
1.000
1.000
0.000
0.000
0.000
0.000
0.000
0.000
0.000
0.000
0.000
0.000
0.000
0.000
0.000
0.000
0.000
0.000
0.000
0.000
0.000
0.000
0.000
0.000
0.000
0.000
0.000
0.000
0.000
0.000
0.000
0.000
0.000
0.000
0.000
0.000
0.000
0.000
0.000
0.000
0.000
0.000
0.000
0.000
0.000
0.000
0.000
0.000
0.000
0.000
0.000
0.000
0.000
0.000
0.000
0.000
0.000
0.000
0.000
0.000
0.000
0.000
0.000
0.000
0.000
0.000
0.000
0.000
0.000
0.000
0.000
0.000
0.000
0.000
0.000
0.000
0.000
0.000
0.000
0.000
0.000
0.000
0.000
0.000
0.000
0.000
#ENDOFDATA   :