Folder: Semizbugu-microscopy/data/SEM-data_2024/artifact_surfaces/Sem-survey_artifact_002_analysis_mw_region

Note: README.md
# Semizbugu-microscopy
Analysis of cross-sectioned artifacts from Semizbugu to study rock coatings

File: spectrum.emsa
#FORMAT      : EMSA/MAS Spectral Data File
#VERSION     : 1.0
#TITLE       : EDS Spectrum
#DATE        : 19-SEP-2024
#TIME        : 11:20
#OWNER       : Thermo Fisher Scientific Inc.
#NPOINTS     : 2048.
#NCOLUMNS    : 1.
#XUNITS      : eV
#YUNITS      : Counts
#DATATYPE    : Y
#XPERCHAN    : 9.933
#OFFSET      : -44.878
#XLABEL      : Energy
#YLABEL      : Counts
#SIGNALTYPE  : EDS
#BEAMKV      : 15.000
#AZIMANGLE-dg: 0.0
#ELEVANGLE-dg: 28.5
#LIVETIME    : 544.254
#REALTIME    : 635.388
#EDSDET      : SDUTW
##MNFWHM     : 126.3
##INSTRUMENT : MVE075582-10647-L
##SLOWTPEAK  : 0.000004000
##FASTTPEAK  : 0.000000100
##OPTICALWD  : 0.005500000
##WD         : 0.0157999
##SDDAREA    : 0.000025
##CCORR      : 260.454
##SCORR      : LIN
#SPECTRUM    : Spectral Data Starts Here
0.000
0.000
192.000
49.000
169.000
234.000
433.000
468.000
9487.000
269.000
192.000
380.000
99.000
105.000
143.000
374.000
360.000
123.000
231.000
234.000
169.000
409.000
1914.000
271.000
195.000
3459.000
4484.000
400.000
96.000
107.000
101.000
64.000
66.000
60.000
86.000
83.000
66.000
72.000
79.000
83.000
61.000
75.000
61.000
70.000
54.000
50.000
47.000
85.000
233.000
161.000
45.000
54.000
87.000
99.000
106.000
53.000
36.000
40.000
55.000
45.000
40.000
41.000
29.000
38.000
53.000
75.000
32.000
37.000
41.000
33.000
36.000
35.000
42.000
31.000
33.000
30.000
38.000
27.000
32.000
27.000
20.000
22.000
28.000
27.000
21.000
30.000
35.000
22.000
31.000
30.000
22.000
57.000
234.000
266.000
85.000
23.000
15.000
20.000
17.000
19.000
26.000
38.000
51.000
41.000
19.000
23.000
20.000
13.000
15.000
18.000
19.000
16.000
19.000
12.000
8.000
8.000
10.000
6.000
13.000
12.000
9.000
13.000
8.000
10.000
13.000
10.000
11.000
17.000
10.000
10.000
8.000
12.000
6.000
14.000
14.000
9.000
6.000
10.000
9.000
6.000
5.000
7.000
8.000
5.000
5.000
10.000
8.000
10.000
10.000
4.000
8.000
7.000
3.000
7.000
3.000
2.000
3.000
3.000
6.000
4.000
5.000
7.000
6.000
8.000
6.000
2.000
4.000
7.000
1.000
1.000
4.000
6.000
4.000
3.000
1.000
2.000
4.000
4.000
2.000
1.000
1.000
5.000
4.000
4.000
4.000
1.000
2.000
2.000
2.000
2.000
0.000
2.000
3.000
4.000
0.000
0.000
0.000
2.000
0.000
1.000
0.000
1.000
0.000
1.000
2.000
0.000
1.000
0.000
1.000
0.000
0.000
0.000
0.000
0.000
0.000
0.000
0.000
0.000
0.000
0.000
0.000
0.000
0.000
0.000
0.000
0.000
0.000
0.000
0.000
0.000
0.000
0.000
0.000
0.000
0.000
0.000
0.000
0.000
0.000
0.000
0.000
0.000
0.000
0.000
0.000
0.000
0.000
0.000
0.000
0.000
0.000
0.000
0.000
0.000
0.000
0.000
0.000
0.000
0.000
0.000
0.000
0.000
0.000
0.000
0.000
0.000
0.000
0.000
0.000
0.000
0.000
0.000
0.000
0.000
0.000
0.000
0.000
0.000
0.000
0.000
0.000
0.000
0.000
0.000
0.000
0.000
0.000
0.000
0.000
0.000
0.000
0.000
0.000
0.000
#ENDOFDATA   :