Folder: Semizbugu-microscopy/data/SEM-data_2024/artifact_surfaces/Sem-survey_artifact_001_analysis_mw_region

Note: README.md
# Semizbugu-microscopy
Analysis of cross-sectioned artifacts from Semizbugu to study rock coatings

File: spectrum.emsa
#FORMAT      : EMSA/MAS Spectral Data File
#VERSION     : 1.0
#TITLE       : EDS Spectrum
#DATE        : 19-SEP-2024
#TIME        : 11:20
#OWNER       : Thermo Fisher Scientific Inc.
#NPOINTS     : 2048.
#NCOLUMNS    : 1.
#XUNITS      : eV
#YUNITS      : Counts
#DATATYPE    : Y
#XPERCHAN    : 9.933
#OFFSET      : -44.878
#XLABEL      : Energy
#YLABEL      : Counts
#SIGNALTYPE  : EDS
#BEAMKV      : 15.000
#AZIMANGLE-dg: 0.0
#ELEVANGLE-dg: 28.5
#LIVETIME    : 137.346
#REALTIME    : 163.561
#EDSDET      : SDUTW
##MNFWHM     : 126.3
##INSTRUMENT : MVE075582-10647-L
##SLOWTPEAK  : 0.000004000
##FASTTPEAK  : 0.000000100
##OPTICALWD  : 0.005500000
##WD         : 0.0141758
##SDDAREA    : 0.000025
##CCORR      : 260.454
##SCORR      : LIN
#SPECTRUM    : Spectral Data Starts Here
0.000
0.000
97.000
38.000
164.000
234.000
215.000
474.000
8762.000
270.000
226.000
342.000
114.000
115.000
110.000
324.000
320.000
133.000
192.000
249.000
139.000
339.000
1826.000
281.000
207.000
3762.000
4522.000
392.000
97.000
115.000
115.000
83.000
74.000
99.000
109.000
66.000
73.000
64.000
94.000
73.000
87.000
65.000
62.000
85.000
61.000
61.000
75.000
88.000
249.000
137.000
65.000
47.000
93.000
102.000
123.000
64.000
49.000
50.000
45.000
48.000
46.000
57.000
38.000
43.000
50.000
64.000
64.000
61.000
36.000
33.000
40.000
33.000
32.000
35.000
41.000
30.000
43.000
44.000
27.000
32.000
32.000
35.000
35.000
29.000
34.000
35.000
34.000
20.000
29.000
14.000
26.000
77.000
300.000
343.000
101.000
24.000
24.000
26.000
21.000
20.000
26.000
47.000
58.000
39.000
14.000
16.000
19.000
15.000
17.000
16.000
21.000
18.000
17.000
15.000
22.000
12.000
15.000
14.000
20.000
7.000
20.000
15.000
14.000
8.000
20.000
15.000
16.000
13.000
10.000
8.000
12.000
9.000
10.000
11.000
6.000
19.000
10.000
12.000
13.000
6.000
9.000
13.000
5.000
13.000
6.000
7.000
9.000
9.000
5.000
11.000
8.000
7.000
4.000
2.000
5.000
4.000
7.000
4.000
6.000
3.000
6.000
7.000
6.000
5.000
4.000
4.000
3.000
2.000
2.000
3.000
2.000
5.000
0.000
3.000
2.000
2.000
3.000
3.000
4.000
1.000
1.000
0.000
2.000
2.000
3.000
2.000
1.000
4.000
2.000
1.000
0.000
2.000
3.000
1.000
2.000
3.000
0.000
2.000
2.000
1.000
3.000
3.000
1.000
0.000
0.000
0.000
1.000
0.000
0.000
0.000
1.000
0.000
0.000
0.000
0.000
0.000
0.000
0.000
0.000
0.000
0.000
0.000
0.000
0.000
0.000
0.000
0.000
0.000
0.000
0.000
0.000
0.000
0.000
0.000
0.000
0.000
0.000
0.000
0.000
0.000
0.000
0.000
0.000
0.000
0.000
0.000
0.000
0.000
0.000
0.000
0.000
0.000
0.000
0.000
0.000
0.000
0.000
0.000
0.000
0.000
0.000
0.000
0.000
0.000
0.000
0.000
0.000
0.000
0.000
0.000
0.000
0.000
0.000
0.000
0.000
0.000
0.000
0.000
0.000
0.000
0.000
0.000
0.000
0.000
0.000
0.000
0.000
0.000
0.000
0.000
0.000
0.000
0.000
0.000
#ENDOFDATA   :