Folder: Semizbugu-microscopy/data/SEM-data_2024/artifact_surfaces/Sem-survey_artifact_002_analysis_lw_region

Note: README.md
# Semizbugu-microscopy
Analysis of cross-sectioned artifacts from Semizbugu to study rock coatings

File: spectrum.emsa
#FORMAT      : EMSA/MAS Spectral Data File
#VERSION     : 1.0
#TITLE       : EDS Spectrum
#DATE        : 19-SEP-2024
#TIME        : 11:20
#OWNER       : Thermo Fisher Scientific Inc.
#NPOINTS     : 2048.
#NCOLUMNS    : 1.
#XUNITS      : eV
#YUNITS      : Counts
#DATATYPE    : Y
#XPERCHAN    : 9.933
#OFFSET      : -44.878
#XLABEL      : Energy
#YLABEL      : Counts
#SIGNALTYPE  : EDS
#BEAMKV      : 15.000
#AZIMANGLE-dg: 0.0
#ELEVANGLE-dg: 28.5
#LIVETIME    : 1272.522
#REALTIME    : 1463.155
#EDSDET      : SDUTW
##MNFWHM     : 126.3
##INSTRUMENT : MVE075582-10647-L
##SLOWTPEAK  : 0.000004000
##FASTTPEAK  : 0.000000100
##OPTICALWD  : 0.005500000
##WD         : 0.0157999
##SDDAREA    : 0.000025
##CCORR      : 260.454
##SCORR      : LIN
#SPECTRUM    : Spectral Data Starts Here
0.000
0.000
426.000
58.000
234.000
348.000
700.000
582.000
9701.000
273.000
188.000
285.000
114.000
108.000
126.000
471.000
397.000
154.000
219.000
231.000
148.000
367.000
1908.000
288.000
179.000
3589.000
4365.000
364.000
84.000
91.000
110.000
59.000
65.000
68.000
81.000
61.000
49.000
54.000
77.000
81.000
38.000
56.000
51.000
68.000
59.000
42.000
51.000
75.000
231.000
127.000
53.000
46.000
57.000
77.000
99.000
53.000
38.000
28.000
48.000
44.000
27.000
33.000
34.000
35.000
35.000
53.000
41.000
26.000
36.000
36.000
36.000
36.000
26.000
32.000
22.000
31.000
26.000
25.000
24.000
24.000
24.000
21.000
26.000
20.000
26.000
22.000
29.000
30.000
20.000
21.000
17.000
33.000
112.000
120.000
49.000
23.000
17.000
20.000
17.000
17.000
13.000
22.000
37.000
25.000
11.000
18.000
12.000
20.000
11.000
14.000
10.000
14.000
16.000
13.000
16.000
6.000
9.000
11.000
12.000
7.000
7.000
12.000
13.000
11.000
11.000
11.000
10.000
8.000
6.000
5.000
5.000
4.000
9.000
7.000
9.000
1.000
6.000
7.000
7.000
10.000
6.000
7.000
5.000
6.000
8.000
4.000
9.000
6.000
4.000
7.000
1.000
5.000
5.000
5.000
5.000
6.000
2.000
3.000
5.000
3.000
4.000
7.000
4.000
3.000
3.000
2.000
4.000
2.000
4.000
6.000
1.000
2.000
3.000
0.000
2.000
3.000
2.000
3.000
1.000
3.000
4.000
3.000
2.000
2.000
1.000
3.000
1.000
1.000
1.000
1.000
1.000
3.000
1.000
1.000
0.000
1.000
2.000
1.000
1.000
2.000
0.000
0.000
1.000
0.000
0.000
0.000
0.000
0.000
1.000
0.000
0.000
2.000
0.000
0.000
1.000
0.000
0.000
0.000
0.000
0.000
0.000
0.000
0.000
0.000
0.000
0.000
0.000
0.000
0.000
0.000
0.000
0.000
0.000
0.000
0.000
0.000
0.000
0.000
0.000
0.000
0.000
0.000
0.000
0.000
0.000
0.000
0.000
0.000
0.000
0.000
0.000
0.000
0.000
0.000
0.000
0.000
0.000
0.000
0.000
0.000
0.000
0.000
0.000
0.000
0.000
0.000
0.000
0.000
0.000
0.000
0.000
0.000
0.000
0.000
0.000
0.000
0.000
0.000
0.000
0.000
0.000
0.000
0.000
0.000
0.000
0.000
0.000
0.000
0.000
0.000
0.000
0.000
0.000
0.000
#ENDOFDATA   :