Folder: Semizbugu-microscopy/data/SEM-data_2024/cross_sections/P1-231_medial_analysis_1_map

Note: README.md
# Semizbugu-microscopy
Analysis of cross-sectioned artifacts from Semizbugu to study rock coatings

File: spectrum.emsa
#FORMAT      : EMSA/MAS Spectral Data File
#VERSION     : 1.0
#TITLE       : EDS Spectrum
#DATE        : 19-SEP-2024
#TIME        : 14:36
#OWNER       : Thermo Fisher Scientific Inc.
#NPOINTS     : 2048.
#NCOLUMNS    : 1.
#XUNITS      : eV
#YUNITS      : Counts
#DATATYPE    : Y
#XPERCHAN    : 9.903
#OFFSET      : -56.900
#XLABEL      : Energy
#YLABEL      : Counts
#SIGNALTYPE  : EDS
#BEAMKV      : 15.000
#AZIMANGLE-dg: 0.0
#ELEVANGLE-dg: 28.5
#LIVETIME    : 113.806
#REALTIME    : 122.808
#EDSDET      : SDUTW
##MNFWHM     : 129.6
##INSTRUMENT : MVE075582-10647-L
##SLOWTPEAK  : 0.000001000
##FASTTPEAK  : 0.000000100
##OPTICALWD  : 0.005500000
##WD         : 0.005183736
##SDDAREA    : 0.000025
##CCORR      : 260.454
##SCORR      : LIN
#SPECTRUM    : Spectral Data Starts Here
0.000
0.000
0.000
0.000
601.000
2990.000
1127.000
2547.000
61161.000
16619.000
1053.000
1363.000
1277.000
1424.000
1735.000
4102.000
10605.000
2001.000
2056.000
3149.000
2359.000
6317.000
72994.000
22222.000
2968.000
27234.000
105723.000
13801.000
2096.000
1025.000
1084.000
915.000
995.000
1224.000
1338.000
997.000
939.000
949.000
1000.000
934.000
979.000
944.000
911.000
928.000
1074.000
904.000
870.000
909.000
987.000
926.000
846.000
891.000
842.000
1258.000
2263.000
1251.000
760.000
713.000
745.000
832.000
677.000
650.000
649.000
624.000
586.000
732.000
768.000
588.000
568.000
553.000
535.000
529.000
558.000
561.000
497.000
497.000
512.000
502.000
501.000
479.000
455.000
476.000
429.000
395.000
407.000
447.000
415.000
432.000
393.000
395.000
362.000
375.000
534.000
900.000
619.000
341.000
336.000
316.000
325.000
308.000
309.000
330.000
339.000
331.000
318.000
275.000
267.000
239.000
248.000
238.000
249.000
269.000
232.000
244.000
234.000
258.000
214.000
217.000
222.000
198.000
206.000
196.000
217.000
206.000
191.000
188.000
199.000
165.000
155.000
175.000
165.000
143.000
149.000
145.000
167.000
143.000
146.000
131.000
130.000
124.000
132.000
132.000
152.000
111.000
142.000
115.000
111.000
116.000
104.000
97.000
104.000
100.000
91.000
93.000
88.000
82.000
92.000
78.000
80.000
103.000
83.000
73.000
70.000
60.000
75.000
51.000
60.000
79.000
53.000
49.000
50.000
78.000
44.000
54.000
60.000
63.000
47.000
44.000
44.000
46.000
38.000
44.000
41.000
35.000
36.000
16.000
29.000
28.000
28.000
34.000
36.000
25.000
28.000
26.000
15.000
19.000
12.000
16.000
6.000
12.000
16.000
13.000
8.000
8.000
7.000
10.000
9.000
6.000
4.000
3.000
7.000
0.000
1.000
0.000
2.000
0.000
4.000
0.000
0.000
0.000
0.000
0.000
0.000
0.000
0.000
0.000
0.000
0.000
0.000
0.000
0.000
0.000
0.000
0.000
0.000
0.000
0.000
0.000
0.000
0.000
0.000
0.000
0.000
0.000
0.000
0.000
0.000
0.000
0.000
0.000
0.000
0.000
0.000
0.000
0.000
0.000
0.000
0.000
0.000
0.000
0.000
0.000
0.000
0.000
0.000
0.000
0.000
0.000
1.000
0.000
1.000
0.000
0.000
0.000
0.000
0.000
0.000
0.000
0.000
0.000
0.000
0.000
0.000
0.000
0.000
0.000
0.000
1.000
0.000
0.000
0.000
0.000
0.000
0.000
#ENDOFDATA   :