Folder: Semizbugu-microscopy/data/SEM-data_2024/cross_sections/P1-336_medial_analysis_1_map

Note: README.md
# Semizbugu-microscopy
Analysis of cross-sectioned artifacts from Semizbugu to study rock coatings

File: spectrum.emsa
#FORMAT      : EMSA/MAS Spectral Data File
#VERSION     : 1.0
#TITLE       : EDS Spectrum
#DATE        : 19-SEP-2024
#TIME        : 14:36
#OWNER       : Thermo Fisher Scientific Inc.
#NPOINTS     : 2048.
#NCOLUMNS    : 1.
#XUNITS      : eV
#YUNITS      : Counts
#DATATYPE    : Y
#XPERCHAN    : 9.903
#OFFSET      : -56.900
#XLABEL      : Energy
#YLABEL      : Counts
#SIGNALTYPE  : EDS
#BEAMKV      : 15.000
#AZIMANGLE-dg: 0.0
#ELEVANGLE-dg: 28.5
#LIVETIME    : 112.848
#REALTIME    : 121.241
#EDSDET      : SDUTW
##MNFWHM     : 129.6
##INSTRUMENT : MVE075582-10647-L
##SLOWTPEAK  : 0.000001000
##FASTTPEAK  : 0.000000100
##OPTICALWD  : 0.005500000
##WD         : 0.006435105
##SDDAREA    : 0.000025
##CCORR      : 260.454
##SCORR      : LIN
#SPECTRUM    : Spectral Data Starts Here
0.000
0.000
0.000
0.000
915.000
5381.000
1250.000
2932.000
70495.000
19161.000
926.000
1296.000
1047.000
1131.000
1424.000
4404.000
11990.000
1791.000
1796.000
2505.000
2018.000
3319.000
22779.000
8671.000
2979.000
35207.000
136046.000
17726.000
2650.000
1097.000
1177.000
1029.000
1098.000
1477.000
1482.000
1101.000
1052.000
1059.000
1113.000
1155.000
1014.000
1043.000
1049.000
911.000
1000.000
942.000
976.000
1006.000
1235.000
1154.000
943.000
1123.000
1031.000
1334.000
2414.000
1358.000
789.000
803.000
942.000
943.000
769.000
733.000
723.000
756.000
720.000
856.000
876.000
756.000
653.000
661.000
657.000
633.000
623.000
591.000
599.000
567.000
584.000
528.000
559.000
515.000
513.000
504.000
480.000
483.000
456.000
584.000
610.000
482.000
437.000
438.000
426.000
450.000
672.000
1053.000
789.000
466.000
395.000
363.000
361.000
369.000
387.000
362.000
426.000
441.000
338.000
326.000
292.000
319.000
303.000
294.000
261.000
282.000
269.000
289.000
273.000
235.000
268.000
264.000
236.000
252.000
250.000
227.000
221.000
236.000
206.000
198.000
238.000
201.000
214.000
198.000
198.000
187.000
180.000
166.000
195.000
182.000
184.000
180.000
167.000
167.000
147.000
173.000
186.000
144.000
150.000
129.000
138.000
138.000
122.000
119.000
114.000
120.000
97.000
110.000
112.000
105.000
105.000
93.000
100.000
96.000
92.000
106.000
88.000
99.000
109.000
86.000
75.000
69.000
72.000
86.000
65.000
83.000
65.000
59.000
61.000
63.000
66.000
49.000
51.000
56.000
53.000
52.000
45.000
35.000
49.000
41.000
45.000
37.000
33.000
36.000
33.000
34.000
33.000
27.000
26.000
26.000
21.000
21.000
26.000
12.000
21.000
16.000
19.000
17.000
13.000
10.000
13.000
8.000
9.000
5.000
6.000
4.000
2.000
5.000
1.000
1.000
0.000
0.000
0.000
0.000
0.000
1.000
0.000
0.000
1.000
0.000
0.000
0.000
0.000
0.000
0.000
0.000
0.000
0.000
0.000
0.000
0.000
1.000
0.000
1.000
0.000
0.000
0.000
0.000
0.000
0.000
0.000
0.000
0.000
0.000
0.000
0.000
0.000
0.000
0.000
0.000
0.000
0.000
0.000
0.000
0.000
0.000
0.000
0.000
0.000
1.000
0.000
0.000
0.000
0.000
0.000
0.000
0.000
0.000
0.000
0.000
0.000
0.000
0.000
0.000
0.000
0.000
0.000
0.000
0.000
0.000
0.000
0.000
0.000
0.000
0.000
0.000
0.000
0.000
#ENDOFDATA   :