Folder: Semizbugu-microscopy/data/SEM-data_2024/cross_sections/P1-495_medial_analysis_1_map

Note: README.md
# Semizbugu-microscopy
Analysis of cross-sectioned artifacts from Semizbugu to study rock coatings

File: spectrum.emsa
#FORMAT      : EMSA/MAS Spectral Data File
#VERSION     : 1.0
#TITLE       : EDS Spectrum
#DATE        : 19-SEP-2024
#TIME        : 14:36
#OWNER       : Thermo Fisher Scientific Inc.
#NPOINTS     : 2048.
#NCOLUMNS    : 1.
#XUNITS      : eV
#YUNITS      : Counts
#DATATYPE    : Y
#XPERCHAN    : 9.903
#OFFSET      : -56.900
#XLABEL      : Energy
#YLABEL      : Counts
#SIGNALTYPE  : EDS
#BEAMKV      : 15.000
#AZIMANGLE-dg: 0.0
#ELEVANGLE-dg: 28.5
#LIVETIME    : 75.768
#REALTIME    : 85.189
#EDSDET      : SDUTW
##MNFWHM     : 129.6
##INSTRUMENT : MVE075582-10647-L
##SLOWTPEAK  : 0.000001000
##FASTTPEAK  : 0.000000100
##OPTICALWD  : 0.005500000
##WD         : 0.009104344
##SDDAREA    : 0.000025
##CCORR      : 260.454
##SCORR      : LIN
#SPECTRUM    : Spectral Data Starts Here
0.000
0.000
0.000
0.000
1204.000
8048.000
1690.000
3821.000
88346.000
23079.000
1604.000
2551.000
1449.000
1476.000
1779.000
4951.000
12405.000
2165.000
2097.000
3137.000
2065.000
3357.000
23035.000
8310.000
2931.000
31951.000
120566.000
15633.000
2528.000
1299.000
1368.000
1167.000
1245.000
2187.000
4113.000
1681.000
1174.000
1081.000
1043.000
1100.000
934.000
986.000
936.000
892.000
850.000
847.000
855.000
986.000
1804.000
2048.000
972.000
1075.000
976.000
1164.000
1733.000
1061.000
680.000
751.000
706.000
792.000
672.000
682.000
626.000
618.000
551.000
645.000
694.000
610.000
610.000
526.000
500.000
563.000
567.000
464.000
528.000
482.000
484.000
465.000
498.000
464.000
424.000
424.000
415.000
391.000
453.000
454.000
520.000
483.000
392.000
369.000
340.000
469.000
1001.000
1811.000
1120.000
444.000
293.000
340.000
316.000
331.000
299.000
372.000
426.000
440.000
306.000
265.000
281.000
283.000
241.000
288.000
234.000
260.000
240.000
242.000
227.000
225.000
201.000
224.000
220.000
216.000
212.000
217.000
198.000
200.000
192.000
184.000
182.000
171.000
156.000
181.000
154.000
164.000
157.000
151.000
153.000
152.000
142.000
143.000
128.000
123.000
118.000
131.000
125.000
115.000
112.000
110.000
110.000
96.000
100.000
100.000
104.000
113.000
97.000
103.000
95.000
76.000
89.000
104.000
87.000
83.000
71.000
77.000
62.000
72.000
77.000
68.000
68.000
78.000
77.000
60.000
61.000
57.000
56.000
52.000
41.000
46.000
44.000
46.000
49.000
42.000
38.000
35.000
37.000
38.000
34.000
35.000
37.000
33.000
32.000
24.000
34.000
23.000
22.000
23.000
31.000
16.000
10.000
15.000
14.000
17.000
20.000
13.000
14.000
12.000
9.000
9.000
10.000
7.000
7.000
5.000
3.000
4.000
1.000
4.000
2.000
0.000
0.000
0.000
0.000
0.000
1.000
0.000
0.000
0.000
1.000
1.000
0.000
1.000
0.000
0.000
0.000
0.000
0.000
0.000
0.000
0.000
1.000
0.000
0.000
0.000
0.000
0.000
1.000
0.000
0.000
1.000
1.000
0.000
0.000
0.000
0.000
0.000
0.000
0.000
0.000
0.000
0.000
0.000
0.000
0.000
1.000
1.000
0.000
0.000
0.000
0.000
0.000
0.000
0.000
0.000
0.000
0.000
0.000
0.000
0.000
0.000
0.000
0.000
0.000
0.000
0.000
0.000
0.000
0.000
0.000
0.000
0.000
1.000
0.000
0.000
0.000
1.000
0.000
0.000
#ENDOFDATA   :