Folder: Semizbugu-microscopy/data/SEM-data_2024/cross_sections/P1-83_medial_analysis_1_map

Note: README.md
# Semizbugu-microscopy
Analysis of cross-sectioned artifacts from Semizbugu to study rock coatings

File: spectrum.emsa
#FORMAT      : EMSA/MAS Spectral Data File
#VERSION     : 1.0
#TITLE       : EDS Spectrum
#DATE        : 19-SEP-2024
#TIME        : 14:36
#OWNER       : Thermo Fisher Scientific Inc.
#NPOINTS     : 2048.
#NCOLUMNS    : 1.
#XUNITS      : eV
#YUNITS      : Counts
#DATATYPE    : Y
#XPERCHAN    : 9.903
#OFFSET      : -56.900
#XLABEL      : Energy
#YLABEL      : Counts
#SIGNALTYPE  : EDS
#BEAMKV      : 15.000
#AZIMANGLE-dg: 0.0
#ELEVANGLE-dg: 28.5
#LIVETIME    : 107.322
#REALTIME    : 116.553
#EDSDET      : SDUTW
##MNFWHM     : 129.6
##INSTRUMENT : MVE075582-10647-L
##SLOWTPEAK  : 0.000001000
##FASTTPEAK  : 0.000000100
##OPTICALWD  : 0.005500000
##WD         : 0.006369887
##SDDAREA    : 0.000025
##CCORR      : 260.454
##SCORR      : LIN
#SPECTRUM    : Spectral Data Starts Here
0.000
0.000
0.000
0.000
894.000
5121.000
1240.000
3303.000
79550.000
21736.000
1079.000
1592.000
1199.000
1314.000
1588.000
4849.000
13197.000
1998.000
1929.000
2917.000
2158.000
3613.000
27347.000
10018.000
2938.000
33364.000
130020.000
16901.000
2537.000
1183.000
1268.000
1009.000
1105.000
1567.000
1643.000
1160.000
1066.000
1073.000
1057.000
1053.000
980.000
1068.000
976.000
980.000
971.000
884.000
930.000
975.000
1050.000
1081.000
972.000
1004.000
935.000
1445.000
2703.000
1492.000
785.000
792.000
896.000
964.000
757.000
702.000
672.000
652.000
653.000
778.000
881.000
666.000
586.000
580.000
547.000
597.000
577.000
582.000
524.000
551.000
554.000
505.000
490.000
536.000
484.000
522.000
484.000
472.000
477.000
484.000
526.000
483.000
404.000
431.000
401.000
441.000
746.000
1117.000
882.000
431.000
356.000
350.000
334.000
350.000
340.000
371.000
438.000
424.000
337.000
300.000
311.000
285.000
288.000
322.000
263.000
296.000
275.000
282.000
276.000
253.000
252.000
247.000
252.000
251.000
241.000
229.000
212.000
216.000
217.000
199.000
170.000
195.000
192.000
186.000
188.000
182.000
149.000
170.000
179.000
179.000
160.000
160.000
157.000
142.000
152.000
153.000
139.000
143.000
146.000
160.000
132.000
130.000
141.000
127.000
104.000
127.000
115.000
97.000
91.000
123.000
85.000
104.000
85.000
116.000
91.000
86.000
88.000
83.000
74.000
75.000
66.000
84.000
80.000
61.000
62.000
67.000
78.000
60.000
72.000
55.000
63.000
55.000
44.000
49.000
46.000
49.000
46.000
44.000
46.000
29.000
49.000
42.000
37.000
29.000
37.000
29.000
30.000
32.000
27.000
27.000
25.000
23.000
23.000
10.000
26.000
17.000
8.000
9.000
16.000
11.000
11.000
8.000
10.000
9.000
10.000
4.000
4.000
4.000
0.000
1.000
0.000
1.000
0.000
2.000
0.000
0.000
1.000
0.000
0.000
1.000
0.000
0.000
0.000
1.000
0.000
0.000
1.000
0.000
0.000
0.000
0.000
0.000
0.000
0.000
0.000
0.000
0.000
0.000
0.000
0.000
1.000
0.000
0.000
0.000
0.000
0.000
0.000
0.000
0.000
0.000
0.000
0.000
0.000
0.000
0.000
0.000
0.000
0.000
0.000
0.000
0.000
0.000
0.000
0.000
0.000
0.000
0.000
0.000
0.000
0.000
0.000
0.000
0.000
0.000
0.000
0.000
0.000
0.000
0.000
0.000
0.000
0.000
0.000
0.000
0.000
0.000
0.000
0.000
#ENDOFDATA   :