Folder: Semizbugu-microscopy/data/SEM-data_2024/cross_sections/P2-761_medial_analysis_1_map

Note: README.md
# Semizbugu-microscopy
Analysis of cross-sectioned artifacts from Semizbugu to study rock coatings

File: spectrum.emsa
#FORMAT      : EMSA/MAS Spectral Data File
#VERSION     : 1.0
#TITLE       : EDS Spectrum
#DATE        : 19-SEP-2024
#TIME        : 14:36
#OWNER       : Thermo Fisher Scientific Inc.
#NPOINTS     : 2048.
#NCOLUMNS    : 1.
#XUNITS      : eV
#YUNITS      : Counts
#DATATYPE    : Y
#XPERCHAN    : 9.903
#OFFSET      : -56.900
#XLABEL      : Energy
#YLABEL      : Counts
#SIGNALTYPE  : EDS
#BEAMKV      : 15.000
#AZIMANGLE-dg: 0.0
#ELEVANGLE-dg: 28.5
#LIVETIME    : 100.399
#REALTIME    : 107.596
#EDSDET      : SDUTW
##MNFWHM     : 129.6
##INSTRUMENT : MVE075582-10647-L
##SLOWTPEAK  : 0.000001000
##FASTTPEAK  : 0.000000100
##OPTICALWD  : 0.005500000
##WD         : 0.006714096
##SDDAREA    : 0.000025
##CCORR      : 260.454
##SCORR      : LIN
#SPECTRUM    : Spectral Data Starts Here
0.000
0.000
0.000
0.000
1555.000
10420.000
1421.000
3015.000
71607.000
19277.000
988.000
1377.000
1228.000
1312.000
1621.000
5695.000
15453.000
1905.000
1845.000
2271.000
2060.000
3500.000
26036.000
9607.000
3044.000
32649.000
124813.000
16185.000
2498.000
1294.000
1323.000
1163.000
1109.000
1486.000
1380.000
1143.000
1004.000
1037.000
1361.000
1536.000
1039.000
1026.000
1024.000
933.000
921.000
925.000
927.000
981.000
1099.000
1119.000
910.000
1055.000
922.000
1039.000
1518.000
1008.000
779.000
739.000
832.000
810.000
704.000
704.000
705.000
619.000
649.000
777.000
808.000
682.000
636.000
585.000
555.000
608.000
594.000
541.000
549.000
566.000
545.000
491.000
518.000
522.000
516.000
462.000
478.000
437.000
457.000
433.000
470.000
422.000
454.000
393.000
418.000
438.000
634.000
1012.000
758.000
407.000
374.000
374.000
346.000
310.000
330.000
370.000
400.000
394.000
315.000
294.000
301.000
255.000
268.000
284.000
260.000
256.000
239.000
246.000
219.000
230.000
271.000
271.000
228.000
234.000
245.000
210.000
195.000
198.000
202.000
216.000
228.000
220.000
205.000
210.000
194.000
183.000
182.000
176.000
195.000
166.000
168.000
186.000
143.000
151.000
185.000
136.000
136.000
137.000
148.000
119.000
136.000
119.000
136.000
97.000
123.000
105.000
120.000
113.000
124.000
99.000
101.000
94.000
89.000
79.000
84.000
92.000
89.000
71.000
97.000
74.000
73.000
62.000
57.000
55.000
55.000
59.000
55.000
55.000
68.000
53.000
48.000
61.000
45.000
53.000
39.000
50.000
48.000
48.000
29.000
35.000
30.000
43.000
34.000
33.000
38.000
31.000
19.000
25.000
23.000
22.000
28.000
14.000
12.000
26.000
17.000
19.000
11.000
14.000
11.000
12.000
12.000
10.000
7.000
10.000
9.000
5.000
6.000
1.000
2.000
2.000
0.000
0.000
0.000
1.000
0.000
0.000
0.000
0.000
0.000
1.000
0.000
0.000
0.000
0.000
0.000
0.000
0.000
0.000
0.000
0.000
0.000
0.000
1.000
1.000
0.000
0.000
0.000
0.000
0.000
0.000
0.000
0.000
0.000
0.000
0.000
0.000
0.000
0.000
0.000
0.000
0.000
0.000
0.000
0.000
0.000
0.000
0.000
0.000
0.000
0.000
0.000
0.000
0.000
0.000
0.000
0.000
0.000
0.000
0.000
0.000
0.000
0.000
0.000
0.000
0.000
0.000
0.000
0.000
0.000
0.000
0.000
1.000
0.000
0.000
0.000
0.000
0.000
0.000
#ENDOFDATA   :