Folder: Semizbugu-microscopy/data/SEM-data_2024/cross_sections/P5-1843_medial_analysis_1_map

Note: README.md
# Semizbugu-microscopy
Analysis of cross-sectioned artifacts from Semizbugu to study rock coatings

File: spectrum.emsa
#FORMAT      : EMSA/MAS Spectral Data File
#VERSION     : 1.0
#TITLE       : EDS Spectrum
#DATE        : 19-SEP-2024
#TIME        : 14:36
#OWNER       : Thermo Fisher Scientific Inc.
#NPOINTS     : 2048.
#NCOLUMNS    : 1.
#XUNITS      : eV
#YUNITS      : Counts
#DATATYPE    : Y
#XPERCHAN    : 9.903
#OFFSET      : -56.900
#XLABEL      : Energy
#YLABEL      : Counts
#SIGNALTYPE  : EDS
#BEAMKV      : 15.000
#AZIMANGLE-dg: 0.0
#ELEVANGLE-dg: 28.5
#LIVETIME    : 129.259
#REALTIME    : 138.772
#EDSDET      : SDUTW
##MNFWHM     : 129.6
##INSTRUMENT : MVE075582-10647-L
##SLOWTPEAK  : 0.000001000
##FASTTPEAK  : 0.000000100
##OPTICALWD  : 0.005500000
##WD         : 0.005931076
##SDDAREA    : 0.000025
##CCORR      : 260.454
##SCORR      : LIN
#SPECTRUM    : Spectral Data Starts Here
0.000
0.000
0.000
0.000
821.000
4437.000
1275.000
3028.000
74454.000
20146.000
860.000
1173.000
1127.000
1218.000
1512.000
4412.000
12132.000
1870.000
1807.000
2399.000
1957.000
3344.000
23861.000
8826.000
3019.000
34740.000
134997.000
17695.000
2599.000
1195.000
1173.000
1015.000
1109.000
1430.000
1426.000
1141.000
1048.000
1032.000
1033.000
1087.000
1017.000
1021.000
982.000
916.000
963.000
913.000
947.000
967.000
1649.000
1843.000
969.000
1055.000
997.000
1285.000
2044.000
1223.000
795.000
753.000
836.000
858.000
741.000
711.000
672.000
671.000
667.000
775.000
795.000
672.000
612.000
546.000
571.000
578.000
620.000
573.000
548.000
547.000
538.000
560.000
498.000
484.000
495.000
496.000
490.000
459.000
428.000
423.000
444.000
430.000
417.000
416.000
385.000
379.000
523.000
734.000
559.000
428.000
344.000
347.000
341.000
337.000
316.000
338.000
383.000
365.000
304.000
291.000
311.000
309.000
290.000
292.000
282.000
259.000
258.000
269.000
252.000
257.000
282.000
261.000
249.000
245.000
240.000
200.000
247.000
220.000
197.000
216.000
193.000
193.000
199.000
184.000
186.000
165.000
174.000
181.000
162.000
153.000
172.000
164.000
169.000
151.000
139.000
147.000
154.000
139.000
136.000
142.000
147.000
118.000
118.000
117.000
117.000
123.000
101.000
114.000
106.000
108.000
99.000
83.000
93.000
89.000
91.000
82.000
77.000
90.000
87.000
84.000
79.000
79.000
66.000
70.000
49.000
67.000
50.000
63.000
58.000
46.000
46.000
57.000
64.000
46.000
46.000
37.000
51.000
37.000
43.000
46.000
28.000
33.000
36.000
32.000
25.000
27.000
32.000
29.000
29.000
26.000
21.000
20.000
21.000
12.000
9.000
17.000
18.000
12.000
8.000
10.000
11.000
12.000
11.000
5.000
8.000
10.000
4.000
1.000
2.000
0.000
0.000
0.000
0.000
0.000
0.000
1.000
1.000
0.000
0.000
0.000
0.000
0.000
0.000
0.000
0.000
0.000
1.000
0.000
0.000
0.000
1.000
0.000
0.000
0.000
0.000
0.000
0.000
0.000
0.000
0.000
0.000
0.000
0.000
0.000
0.000
0.000
1.000
0.000
0.000
0.000
0.000
1.000
0.000
0.000
0.000
0.000
0.000
0.000
0.000
0.000
1.000
0.000
0.000
0.000
0.000
0.000
0.000
0.000
0.000
0.000
0.000
0.000
0.000
0.000
0.000
0.000
0.000
0.000
0.000
0.000
0.000
0.000
0.000
0.000
0.000
0.000
0.000
0.000
#ENDOFDATA   :