Folder: Semizbugu-microscopy/data/SEM-data_2024/cross_sections/P5-1777_medial_analysis_1_map

Note: README.md
# Semizbugu-microscopy
Analysis of cross-sectioned artifacts from Semizbugu to study rock coatings

File: spectrum.emsa
#FORMAT      : EMSA/MAS Spectral Data File
#VERSION     : 1.0
#TITLE       : EDS Spectrum
#DATE        : 19-SEP-2024
#TIME        : 14:36
#OWNER       : Thermo Fisher Scientific Inc.
#NPOINTS     : 2048.
#NCOLUMNS    : 1.
#XUNITS      : eV
#YUNITS      : Counts
#DATATYPE    : Y
#XPERCHAN    : 9.903
#OFFSET      : -56.900
#XLABEL      : Energy
#YLABEL      : Counts
#SIGNALTYPE  : EDS
#BEAMKV      : 15.000
#AZIMANGLE-dg: 0.0
#ELEVANGLE-dg: 28.5
#LIVETIME    : 107.856
#REALTIME    : 117.013
#EDSDET      : SDUTW
##MNFWHM     : 129.6
##INSTRUMENT : MVE075582-10647-L
##SLOWTPEAK  : 0.000001000
##FASTTPEAK  : 0.000000100
##OPTICALWD  : 0.005500000
##WD         : 0.006056947
##SDDAREA    : 0.000025
##CCORR      : 260.454
##SCORR      : LIN
#SPECTRUM    : Spectral Data Starts Here
0.000
0.000
0.000
0.000
765.000
3375.000
1443.000
3433.000
82470.000
22381.000
1130.000
1978.000
1212.000
1360.000
1541.000
4816.000
12946.000
1872.000
1872.000
2458.000
2078.000
3296.000
25356.000
9208.000
2920.000
33309.000
129093.000
16932.000
2571.000
1155.000
1208.000
1032.000
1053.000
1515.000
1347.000
1035.000
982.000
961.000
962.000
1006.000
950.000
934.000
964.000
914.000
870.000
879.000
910.000
996.000
1455.000
1596.000
944.000
963.000
928.000
953.000
1123.000
866.000
726.000
720.000
710.000
702.000
686.000
644.000
674.000
620.000
630.000
678.000
759.000
630.000
582.000
570.000
551.000
595.000
540.000
522.000
506.000
534.000
496.000
527.000
522.000
481.000
476.000
423.000
435.000
447.000
453.000
448.000
489.000
407.000
407.000
400.000
364.000
428.000
815.000
1340.000
919.000
447.000
378.000
337.000
336.000
344.000
354.000
340.000
434.000
369.000
326.000
285.000
303.000
292.000
253.000
240.000
258.000
281.000
258.000
242.000
217.000
275.000
221.000
243.000
247.000
217.000
207.000
192.000
185.000
198.000
185.000
217.000
190.000
191.000
177.000
143.000
186.000
171.000
148.000
143.000
154.000
126.000
141.000
154.000
153.000
137.000
157.000
136.000
139.000
120.000
157.000
120.000
116.000
129.000
103.000
129.000
95.000
137.000
105.000
83.000
107.000
110.000
86.000
107.000
93.000
79.000
77.000
86.000
87.000
73.000
80.000
74.000
66.000
68.000
58.000
55.000
58.000
66.000
50.000
53.000
65.000
51.000
44.000
52.000
39.000
38.000
33.000
47.000
43.000
35.000
45.000
42.000
22.000
29.000
30.000
25.000
23.000
25.000
33.000
30.000
31.000
27.000
19.000
17.000
13.000
13.000
19.000
11.000
11.000
12.000
15.000
7.000
13.000
9.000
10.000
4.000
5.000
6.000
2.000
4.000
4.000
3.000
0.000
0.000
0.000
0.000
0.000
0.000
1.000
0.000
0.000
0.000
0.000
0.000
0.000
0.000
0.000
0.000
0.000
0.000
0.000
0.000
0.000
0.000
0.000
0.000
0.000
0.000
0.000
0.000
0.000
0.000
0.000
0.000
0.000
0.000
0.000
0.000
0.000
0.000
0.000
0.000
0.000
0.000
0.000
0.000
0.000
0.000
0.000
0.000
0.000
0.000
0.000
0.000
0.000
0.000
0.000
0.000
0.000
0.000
0.000
0.000
0.000
0.000
0.000
0.000
0.000
0.000
0.000
0.000
0.000
0.000
0.000
0.000
0.000
0.000
0.000
0.000
0.000
0.000
#ENDOFDATA   :