Folder: Semizbugu-microscopy/data/SEM-data_2024/cross_sections/P5-1566_medial_analysis_1_map

Note: README.md
# Semizbugu-microscopy
Analysis of cross-sectioned artifacts from Semizbugu to study rock coatings

File: spectrum.emsa
#FORMAT      : EMSA/MAS Spectral Data File
#VERSION     : 1.0
#TITLE       : EDS Spectrum
#DATE        : 19-SEP-2024
#TIME        : 14:36
#OWNER       : Thermo Fisher Scientific Inc.
#NPOINTS     : 2048.
#NCOLUMNS    : 1.
#XUNITS      : eV
#YUNITS      : Counts
#DATATYPE    : Y
#XPERCHAN    : 9.903
#OFFSET      : -56.900
#XLABEL      : Energy
#YLABEL      : Counts
#SIGNALTYPE  : EDS
#BEAMKV      : 15.000
#AZIMANGLE-dg: 0.0
#ELEVANGLE-dg: 28.5
#LIVETIME    : 110.409
#REALTIME    : 115.458
#EDSDET      : SDUTW
##MNFWHM     : 129.6
##INSTRUMENT : MVE075582-10647-L
##SLOWTPEAK  : 0.000001000
##FASTTPEAK  : 0.000000100
##OPTICALWD  : 0.005500000
##WD         : 0.006271999
##SDDAREA    : 0.000025
##CCORR      : 260.454
##SCORR      : LIN
#SPECTRUM    : Spectral Data Starts Here
0.000
0.000
0.000
0.000
1715.000
11590.000
1838.000
2932.000
61188.000
17021.000
1018.000
1748.000
1164.000
1270.000
1394.000
3401.000
8413.000
1750.000
1930.000
3206.000
1952.000
3203.000
23667.000
8679.000
2502.000
25380.000
99925.000
13436.000
2215.000
1146.000
1211.000
1005.000
1003.000
1328.000
1625.000
1065.000
950.000
973.000
1181.000
1267.000
963.000
908.000
878.000
895.000
849.000
880.000
834.000
1045.000
2844.000
3299.000
1115.000
913.000
1065.000
1427.000
2276.000
1177.000
786.000
692.000
740.000
849.000
702.000
681.000
617.000
544.000
565.000
705.000
853.000
599.000
532.000
557.000
559.000
512.000
542.000
503.000
471.000
471.000
504.000
469.000
412.000
452.000
445.000
436.000
430.000
457.000
422.000
396.000
431.000
424.000
385.000
381.000
335.000
408.000
820.000
1470.000
941.000
414.000
285.000
313.000
306.000
296.000
292.000
339.000
430.000
431.000
298.000
264.000
261.000
268.000
252.000
245.000
243.000
256.000
219.000
218.000
209.000
221.000
226.000
214.000
195.000
198.000
179.000
207.000
188.000
177.000
204.000
191.000
188.000
150.000
165.000
165.000
150.000
158.000
163.000
163.000
159.000
153.000
125.000
140.000
143.000
145.000
128.000
139.000
123.000
114.000
134.000
112.000
111.000
93.000
95.000
98.000
101.000
88.000
125.000
95.000
70.000
95.000
78.000
79.000
87.000
75.000
81.000
79.000
66.000
75.000
67.000
67.000
65.000
54.000
50.000
61.000
51.000
48.000
48.000
44.000
36.000
38.000
43.000
45.000
43.000
41.000
43.000
33.000
35.000
28.000
19.000
27.000
27.000
32.000
26.000
21.000
21.000
17.000
16.000
20.000
18.000
16.000
18.000
6.000
10.000
14.000
6.000
10.000
11.000
6.000
4.000
4.000
5.000
2.000
4.000
1.000
3.000
0.000
1.000
0.000
0.000
0.000
1.000
0.000
1.000
0.000
0.000
0.000
0.000
0.000
1.000
0.000
0.000
0.000
0.000
0.000
0.000
0.000
0.000
1.000
0.000
0.000
0.000
0.000
0.000
0.000
0.000
0.000
0.000
0.000
0.000
0.000
0.000
0.000
0.000
0.000
0.000
0.000
0.000
0.000
0.000
0.000
0.000
0.000
0.000
0.000
0.000
0.000
0.000
0.000
0.000
0.000
0.000
0.000
0.000
0.000
0.000
0.000
0.000
0.000
0.000
0.000
0.000
0.000
0.000
0.000
0.000
0.000
0.000
0.000
0.000
0.000
0.000
0.000
0.000
0.000
0.000
0.000
0.000
0.000
#ENDOFDATA   :