Folder: Semizbugu-microscopy/data/SEM-data_2024/cross_sections/Sem-survey_medial_analysis_1_map

Note: README.md
# Semizbugu-microscopy
Analysis of cross-sectioned artifacts from Semizbugu to study rock coatings

File: spectrum.emsa
#FORMAT      : EMSA/MAS Spectral Data File
#VERSION     : 1.0
#TITLE       : EDS Spectrum
#DATE        : 19-SEP-2024
#TIME        : 14:36
#OWNER       : Thermo Fisher Scientific Inc.
#NPOINTS     : 2048.
#NCOLUMNS    : 1.
#XUNITS      : eV
#YUNITS      : Counts
#DATATYPE    : Y
#XPERCHAN    : 9.903
#OFFSET      : -56.900
#XLABEL      : Energy
#YLABEL      : Counts
#SIGNALTYPE  : EDS
#BEAMKV      : 15.000
#AZIMANGLE-dg: 0.0
#ELEVANGLE-dg: 28.5
#LIVETIME    : 124.017
#REALTIME    : 130.498
#EDSDET      : SDUTW
##MNFWHM     : 129.6
##INSTRUMENT : MVE075582-10647-L
##SLOWTPEAK  : 0.000001000
##FASTTPEAK  : 0.000000100
##OPTICALWD  : 0.005500000
##WD         : 0.005760073
##SDDAREA    : 0.000025
##CCORR      : 260.454
##SCORR      : LIN
#SPECTRUM    : Spectral Data Starts Here
0.000
0.000
0.000
0.000
1339.000
8681.000
1387.000
3012.000
70496.000
19408.000
1233.000
2199.000
1243.000
1280.000
1472.000
4039.000
10498.000
1840.000
2052.000
3356.000
2173.000
3666.000
27642.000
9993.000
3003.000
31466.000
121586.000
16111.000
2573.000
1250.000
1427.000
1167.000
1126.000
1480.000
1486.000
1185.000
1080.000
1075.000
1067.000
1083.000
1070.000
1069.000
1061.000
977.000
992.000
1002.000
985.000
1147.000
2647.000
3070.000
1236.000
1107.000
1133.000
1722.000
2932.000
1601.000
806.000
846.000
947.000
1011.000
812.000
714.000
719.000
713.000
739.000
868.000
1050.000
754.000
627.000
685.000
580.000
655.000
681.000
638.000
572.000
554.000
542.000
543.000
531.000
512.000
480.000
521.000
479.000
457.000
489.000
545.000
545.000
477.000
425.000
433.000
457.000
499.000
1107.000
2144.000
1336.000
508.000
413.000
371.000
366.000
324.000
376.000
387.000
528.000
550.000
401.000
315.000
306.000
316.000
288.000
288.000
307.000
277.000
261.000
270.000
265.000
257.000
273.000
255.000
245.000
228.000
236.000
236.000
228.000
209.000
206.000
215.000
185.000
205.000
233.000
196.000
190.000
172.000
194.000
186.000
184.000
172.000
174.000
155.000
169.000
184.000
124.000
178.000
146.000
139.000
150.000
144.000
126.000
134.000
119.000
149.000
123.000
115.000
119.000
101.000
118.000
112.000
101.000
113.000
93.000
80.000
111.000
95.000
68.000
77.000
91.000
68.000
84.000
90.000
62.000
64.000
67.000
61.000
75.000
55.000
54.000
44.000
54.000
46.000
67.000
57.000
49.000
53.000
44.000
36.000
37.000
37.000
48.000
37.000
37.000
24.000
18.000
28.000
27.000
23.000
25.000
19.000
17.000
20.000
18.000
13.000
12.000
16.000
9.000
10.000
7.000
5.000
14.000
7.000
10.000
3.000
2.000
4.000
2.000
3.000
0.000
1.000
0.000
1.000
0.000
0.000
0.000
0.000
0.000
0.000
0.000
0.000
1.000
0.000
0.000
0.000
0.000
0.000
0.000
0.000
0.000
0.000
0.000
0.000
0.000
0.000
0.000
0.000
0.000
0.000
0.000
0.000
0.000
0.000
0.000
0.000
0.000
0.000
0.000
0.000
0.000
0.000
0.000
0.000
0.000
0.000
0.000
0.000
0.000
0.000
0.000
0.000
0.000
0.000
0.000
0.000
0.000
0.000
0.000
0.000
0.000
0.000
0.000
0.000
0.000
0.000
0.000
0.000
0.000
0.000
0.000
0.000
0.000
0.000
0.000
0.000
0.000
0.000
0.000
1.000
#ENDOFDATA   :